timestamp,accel_x,accel_y,accel_z,gyro_x,gyro_y,gyro_z
12/07/2024 19:33:07.628367,-11.1194466222,1.1006983959999999,-1.3459627125,0.001832595714594046,0.22510384027596866,0.04260785036431157
12/07/2024 19:33:07.681251,-9.296115801,0.9487541609,-1.3603196481,-0.008552113334772215,-0.02138028333693054,0.06887505560682623
12/07/2024 19:33:07.734157,-9.020941202,1.0576275892,-1.7970097726,0.004734205596034618,0.18891007491273626,0.058795779176558975
12/07/2024 19:33:07.787454,-8.0602229281,0.7489534738,-0.7692924659,0.03466660226773737,-0.015271630954950384,0.06520986417763813
12/07/2024 19:33:07.844091,-7.9011002251999995,1.1856435983,-0.5838487144,0.10201449477906856,-0.0679587577495292,-0.014660765716752368
12/07/2024 19:33:07.897592,-7.9752777258,1.1282158559,-0.7872386353999999,0.20494528741543414,-0.2310597763483993,-0.10888672870879623
12/07/2024 19:33:07.950424,-8.9144605963,0.9894321450999999,-0.48574298779999997,0.30986139207594326,-0.18509216717399865,-0.1980730534857065
12/07/2024 19:33:08.006423,-10.4997055688,0.9523433948,-1.1952148887,0.380721759706913,-0.1036943741841131,-0.24633140730334968
12/07/2024 19:33:08.059649,-12.1698957436,0.5108676251000001,-1.7862420709,0.398895000543304,-0.3301726612460273,-0.18952094015093426
12/07/2024 19:33:08.112645,-12.350553849899999,0.08135596839999999,-2.6452653843,0.44791693590869475,-0.42058071649933354,-0.1469130897866227
12/07/2024 19:33:08.165757,-12.5551401822,0.22492532440000002,-1.7670994901,0.4746422900798579,0.20463985479633515,-0.09086620418195478
12/07/2024 19:33:08.218638,-10.1826565743,-0.40558343069999997,-2.1403798157,0.3999640147101506,-0.1950187272947164,0.0070249502392771765
12/07/2024 19:33:08.271423,-9.4348995118,-0.7022934331,-1.1306086785,0.35567628494079445,-0.09987646644537551,0.045662176555301644
12/07/2024 19:33:08.324420,-8.7302132561,-0.12681959780000002,-0.7680960546,0.32070425005395803,0.12232576394915257,0.07483099167925687
12/07/2024 19:33:08.377293,-8.641678819900001,0.20458633229999998,-0.5216353268,0.2861903640957702,-0.29688050576423547,0.11911872144861299
12/07/2024 19:33:08.430099,-8.6644106346,0.3361915753,-0.33858439789999994,0.3022255765984681,-0.3034473070748641,0.11789699097221695
12/07/2024 19:33:08.483013,-8.73380249,0.3493520996,-0.0346959277,0.34086280291449256,-0.17333301133868687,0.07757988525114795
12/07/2024 19:33:08.535980,-8.7541414821,0.4486542375,0.0801595571,0.41233403578366035,-0.03436116964863836,0.03924809155422248
12/07/2024 19:33:08.588888,-9.8835537493,0.4761716974,0.19860427579999998,0.4315762907868978,0.029321531433504737,0.028405233576207712
12/07/2024 19:33:08.641773,-11.633903481199999,0.5371886737,-1.0360921858,0.39858956792420497,-0.3416263844622401,0.09987646644537551
12/07/2024 19:33:08.694776,-12.134003404600001,0.7668996433,-1.3746765837,0.3205515337444086,-0.20158552860534507,0.1475239550248207
12/07/2024 19:33:08.747655,-12.356535906400001,1.2251251712,-2.0027925162,0.20280725908174108,-0.24068090385001803,0.1823432736021076
12/07/2024 19:33:08.800545,-11.498709004299998,0.8781658942,-0.7357929495000001,0.13271047299851882,-0.18616118134084517,0.16157385550337505
12/07/2024 19:33:08.853465,-9.6442714893,0.9320044027,-0.466600407,0.10919216132789523,0.1308778772839248,0.09743300549258344
12/07/2024 19:33:08.906453,-8.9060857172,0.7453642399,-1.0492527101,0.03344487179134134,0.026114488932965158,0.012980886311707827
12/07/2024 19:33:08.959364,-8.471788415299999,0.6137589969,-0.2452643165,-0.007483099167925688,0.2756529387368544,-0.06276640322484607
12/07/2024 19:33:09.012211,-7.9345997416,0.7920242806,-0.1136590735,0.01710422666954443,0.045662176555301644,-0.12125674978230604
12/07/2024 19:33:09.065013,-8.1056865575,1.1820543644000001,0.2452643165,0.021685715956029545,0.3249803067213442,-0.17409659288643436
12/07/2024 19:33:09.118095,-8.2851482525,1.2598210989,-0.095712904,0.045356743936202634,-0.05360342465187585,-0.17134769931454333
12/07/2024 19:33:09.171148,-9.5054877785,1.2574282763000002,-0.4331008906,0.03283400655314333,0.0003054326190990077,-0.1795943800302165
12/07/2024 19:33:09.223988,-11.0715901702,1.1784651305,-1.0468598875,0.036041049053682904,-0.2758056550464039,-0.1545489052640979
12/07/2024 19:33:09.276979,-12.399606713199999,0.9020941202,-1.2933206153,0.07712173632249944,-0.3321579732701708,-0.12507465752104363
12/07/2024 19:33:09.329996,-12.2596265911,0.48693939909999995,-1.2945170266,0.13377948716536536,-0.38667769577934374,-0.12110403347275654
12/07/2024 19:33:09.382869,-11.7523481999,1.0241280728,-0.5407779076,0.20540343634408267,0.2759583713559534,-0.16707164264715718
12/07/2024 19:33:09.435638,-10.3525469789,0.36969109170000003,-0.9379864592,0.19333884788967187,0.19471329467561738,-0.12370021073509811
12/07/2024 19:33:09.488515,-9.4013999954,0.0323031051,-1.0396814197,0.15546520312139492,0.04581489286485115,-0.03665191429188092
12/07/2024 19:33:09.541506,-9.2518485829,0.39960137419999997,-1.5661023917,0.09040805525330627,0.4034764898297891,-0.003817907738737596
12/07/2024 19:33:09.594279,-8.6644106346,0.1746760498,-0.48335016519999996,0.018936822384138473,0.047189339650796684,0.02504547476611863
12/07/2024 19:33:09.647382,-8.386843213,0.47138605219999996,-0.0275174599,0.012828170002158322,0.24541510944605266,0.0003054326190990077
12/07/2024 19:33:09.700272,-8.0817583315,0.6317051664,0.2608176634,0.019547687622336492,0.0358883327441334,0.03558290012503439
12/07/2024 19:33:09.753324,-8.685946038,0.9439685157,-0.1698904046,0.012675453692608817,-0.2565634000431664,0.06307183584394509
12/07/2024 19:33:09.806145,-10.060622621699999,1.2299108163999999,-0.5611168997,0.015271630954950384,-0.2550362369476714,0.047494772269895694
12/07/2024 19:33:09.859233,-12.1160572351,1.4249258583,-1.7395820302,-0.08261952346628157,-0.219453336822637,0.02901609881440573
12/07/2024 19:33:09.912110,-12.3015009866,1.2622139215000001,-2.5160529638999996,-0.20799961360642424,-0.05360342465187585,0.02703078679026218
12/07/2024 19:33:09.965290,-12.0813613074,1.4668002538,-2.6452653843,-0.38667769577934374,-0.0316122760767473,0.007788531787024695
12/07/2024 19:33:10.018080,-11.495119770399999,1.2490533972,-1.7778671918,-0.4384485247166255,0.18692476288859272,0.0033597588100890844
12/07/2024 19:33:10.071121,-9.8249295956,0.9463613382999999,-1.2705888006,-0.4489859500755413,-0.10781771454194972,0.020616701789183015
12/07/2024 19:33:10.126300,-8.6464644651,0.6855436748999999,-0.7908278692999999,-0.4105014400690663,-0.04321871560250958,0.012828170002158322
12/07/2024 19:33:10.179155,-7.2753771152999995,1.0384850084,0.6448656907,-0.2759583713559534,0.2309070600388498,-0.04276056667386108
12/07/2024 19:33:10.232153,-7.348358204599999,0.5718846014,-0.0191425808,-0.14676037347707319,-0.3063489169563047,-0.04932736798448974
12/07/2024 19:33:10.285151,-7.9070822817,0.741775006,0.299102825,0.03252857393404432,0.34009922136674503,-0.10461067204141013
12/07/2024 19:33:10.338140,-9.6993064091,0.6448656907,-0.6029912952,0.15302174216860284,0.0879645943005142,-0.09865473596897947
12/07/2024 19:33:10.391035,-11.7643123129,0.8422735552,-1.3459627125,0.20082194705759754,0.07635815477475191,-0.07528914060790538
12/07/2024 19:33:10.443966,-12.8829568784,-0.04307080679999999,-2.3485553819,0.19975293289075102,-0.10797043085149921,-0.005803219762881146
12/07/2024 19:33:10.497013,-13.8041935794,0.873380249,-2.7026931267000003,0.22281309563272608,-0.1111774733520388,0.08170322560898456
12/07/2024 19:33:10.549912,-11.2833549703,-0.1962114532,-0.8063812161999999,0.2967277894546859,0.21762074110804297,0.11591167894807342
12/07/2024 19:33:10.602658,-9.1836531388,-0.1782652837,-0.753739119,0.38133262494511105,-0.21120665610696382,0.13423763609401387
12/07/2024 19:33:10.655586,-9.3463650756,-0.2201396792,-0.9403792818,0.4303545603105018,-0.0919352183488013,0.08979719001510825
12/07/2024 19:33:10.708372,-7.7096744172000005,0.0382851616,-0.5802594805,0.43279802126329386,0.16203200443202356,0.05803219762881146
12/07/2024 19:33:10.761100,-7.2610201797,0.059820565,-0.6412764568,0.38270707173105656,-0.1272126858547367,0.059406644414756994
12/07/2024 19:33:10.813992,-7.3926254227,0.48693939909999995,0.12681959780000002,0.33536501577071043,0.007483099167925688,0.07131851655961828
12/07/2024 19:33:10.867025,-8.653642932899999,1.0851450490999999,-1.1222337994,0.29565877528783946,-0.35598171755989344,0.07849618310844496
12/07/2024 19:33:10.920815,-10.3692967371,1.2287144051,-1.1557333158,0.2464841236128992,0.0024434609527920616,0.03466660226773737
12/07/2024 19:33:10.973581,-12.4965160285,0.5060819799,-2.8307091358,0.1354593665704099,-0.025350907385217634,0.05375614096142535
12/07/2024 19:33:11.026428,-13.5517507951,0.4845465765,-3.4516466004999997,-0.011453723216212788,-0.30863966159954725,0.09697485656393494
12/07/2024 19:33:11.079255,-12.4199457053,0.610169763,-1.4907284798,-0.007330382858376184,-0.05451972250917286,0.10140362954087054
12/07/2024 19:33:11.132108,-10.561918956400001,0.5000999234,-2.1930219129,-0.0635299847725936,0.20265454277219158,0.17394387657688487
12/07/2024 19:33:11.184876,-8.9347995884,0.71784678,-1.4153545679,-0.06673702727313317,0.18478673455489963,0.18952094015093426
12/07/2024 19:33:11.237954,-7.77667345,0.6963113766000001,-1.0683952909,-0.028863382504856226,0.4503603968614868,0.11911872144861299
12/07/2024 19:33:11.290612,-7.3316084464,1.5302100526999998,-0.6843472636,0.029168815123955232,0.4845688502005757,-0.013439035240356337
12/07/2024 19:33:11.343152,-7.4919275606,1.2837493249,-0.2931207685,0.06627887834448466,0.11087204073293978,-0.07620543846520242
12/07/2024 19:33:11.395654,-8.0590265168,1.1569297271,-1.0875378717,0.10430523942231112,-0.3668245755379082,-0.1232420618064496
12/07/2024 19:33:11.448304,-9.5569334644,1.1521440819,-0.8350950873999999,0.14614950823887515,-0.0759000058461034,-0.18799377705543924
12/07/2024 19:33:11.501067,-11.8157579988,0.789631458,-2.4610180441000002,0.18493945086444913,-0.15088371383490978,-0.1632537349084196
12/07/2024 19:33:11.554106,-12.709477239899998,0.7800601676,-2.2277178406,0.17440202550553338,-0.41569379459374944,-0.08827002691961322
12/07/2024 19:33:11.607146,-12.123235702899999,1.2897313814,-1.8472590472,0.19211711741327583,-0.3781255824445715,-0.08475755179997463
12/07/2024 19:33:11.659976,-11.509476706,0.5539384319,-1.4009976323,0.2057088689631817,-0.07055493501187078,-0.0798706298943905
12/07/2024 19:33:11.712767,-10.8658074266,-0.0550349198,-1.040877831,0.24572054206515165,-0.6249151386765697,0.037262779530078935
12/07/2024 19:33:11.765571,-9.7519485063,0.3840480273,-0.8626125473,0.2838996194525276,-0.2617557545678496,0.12247848025870207
12/07/2024 19:33:11.818502,-8.3533436966,0.693918554,-0.39361931769999997,0.32162054791125505,-0.26068674040100304,0.1510364301444593
12/07/2024 19:33:11.871351,-7.8699935314,0.6352944003,-0.0658026215,0.32971451231737875,-0.18356500407850362,0.13775011121365247
12/07/2024 19:33:11.924085,-7.3842505436,0.7920242806,0.0071784678,0.34895676732061626,-0.32513302303089364,0.08307767239493008
12/07/2024 19:33:11.977046,-8.1463645417,0.9439685157,-0.06340979890000001,0.35842517851268546,-0.218842471584439,0.038179077387375956
12/07/2024 19:33:12.030024,-10.2640125427,1.160518961,-1.6486547714,0.2819143074283841,-0.16401731645616713,0.05283984310412832
12/07/2024 19:33:12.082884,-12.2057880826,1.1617153723,-3.4791640604,0.09896016858807849,-0.16982053621904827,0.08857545953871222
12/07/2024 19:33:12.135678,-13.1880417599,1.5852449725,-2.9347969189,-0.08704829644321718,-0.1273654021642862,0.11881328882951399
12/07/2024 19:33:12.188659,-11.8372934022,1.1533404932,-2.3437697367,-0.2223549467040776,-0.09330966513474685,0.1637118838370681
12/07/2024 19:33:12.241558,-9.7890372566,1.2957134379000002,-1.6845471104,-0.3119994204096363,-0.04596760917440065,0.13836097645185047
12/07/2024 19:33:12.294377,-8.5890367227,1.1246266219999999,-0.8051848049,-0.3463605900582747,0.04352414822160859,0.062002821677098564
12/07/2024 19:33:12.347324,-7.2107709050999995,1.0540383553,-0.040677984199999996,-0.3127630019573839,0.18616118134084517,-0.048411070127192715
12/07/2024 19:33:12.400325,-7.637889739199999,1.2813565023,-0.0346959277,-0.2805398606424386,0.2310597763483993,-0.12247848025870207
12/07/2024 19:33:12.453151,-7.1688965096,1.2753744458,0.2799602442,-0.2429716484932606,-0.06963863715457375,-0.18845192598408772
12/07/2024 19:33:12.505983,-8.8977108381,1.3124631961,-0.0789631458,-0.219453336822637,-0.03237585762449481,-0.239153740754523
12/07/2024 19:33:12.559015,-10.339386454600001,1.3603196481,-0.7046862557000001,-0.2075414646777757,-0.10293079263636558,-0.20433442217723613
12/07/2024 19:33:12.611924,-12.011969451999999,1.232303639,-0.538385085,-0.1875356281267907,-0.1559233520500434,-0.14981469966806327
12/07/2024 19:33:12.664848,-11.8025974745,0.9762716208,0.3026920589,-0.14492777776247914,-0.42852196459590775,-0.13026701204572677
12/07/2024 19:33:12.717655,-10.889735652599999,0.3206382284,1.0205388389,-0.01756237559819294,-0.5122105022290359,-0.15134186276355832
12/07/2024 19:33:12.770678,-10.4817593993,1.9692929998,-0.2703889538,0.1701259688381473,-0.815963241922999,-0.14782938764391973
12/07/2024 19:33:12.823571,-10.4614204072,1.0612168231,-1.4883356572,0.24694227254154769,0.1149953810907764,-0.18448130193580065
12/07/2024 19:33:12.876357,-10.9663059758,0.574277424,-1.2909277927,0.22434025872822114,0.8600982553828056,-0.11698069311491993
12/07/2024 19:33:12.929332,-8.769694829,0.4821537539,-0.0323031051,0.1627955859797711,0.056505034533316414,-0.05299255941367783
12/07/2024 19:33:12.982312,-8.3748791,0.8027919822999999,0.0945164927,0.12125674978230604,0.19654589039021145,-0.099723750135826
12/07/2024 19:33:13.035203,-7.777869861299999,0.9858429111999999,-0.3732803256,0.048869219055841226,0.20555615265363217,-0.13041972835527627
12/07/2024 19:33:13.088023,-8.7661055951,1.2598210989,-0.12442677519999999,-0.05482515512827187,0.16691892633760771,-0.1466076571675237
12/07/2024 19:33:13.140990,-8.9575314031,2.0015961049,-0.3278166962,-0.20418170586768664,-0.014660765716752368,-0.11621711156717243
12/07/2024 19:33:13.193959,-10.2867443574,1.2622139215000001,0.16630117069999997,-0.3006984135029731,-0.6258314365338667,-0.03481931857728687
12/07/2024 19:33:13.246746,-12.6903346591,0.9535398061,-1.6821542877999998,-0.33276883850836886,-0.04642575810304917,0.014049900478554353
12/07/2024 19:33:13.299718,-12.796815264800001,0.0011964113,-1.0097711372,-0.2116648050356123,-1.0215193945766312,0.07880161572754397
12/07/2024 19:33:13.352580,-13.459627125,0.1160518961,-0.777667345,-0.09514226084934088,0.32543845564999263,-0.049632800603588746
12/07/2024 19:33:13.405553,-10.6265251666,-0.3792623821,-0.6592226263,0.023671027980173093,-0.26481008075883966,0.08475755179997463
12/07/2024 19:33:13.458341,-10.7282201271,-1.0731809361,-0.8338986760999999,-0.012675453692608817,0.0032070425005395805,0.0916297857297023
12/07/2024 19:33:13.511256,-9.7399843933,-0.777667345,-0.7190431913,-0.04199698512611356,0.6572909963010645,0.07330382858376185
12/07/2024 19:33:13.564135,-9.050851484499999,-0.23928226,0.11844471869999999,-0.009315694882519734,0.18784106074588972,0.13805554383275148
12/07/2024 19:33:13.617010,-7.9166535721,1.016949605,-0.17706887240000002,-0.0030543261909900766,0.16172657181292455,0.0916297857297023
12/07/2024 19:33:13.669915,-8.306683655899999,1.184447187,0.0035892339,-0.04260785036431157,-0.26160303825830006,0.04108068726881653
12/07/2024 19:33:13.722824,-7.873582765299999,1.2598210989,0.47976093129999997,-0.022143864884678056,-0.3233004273162996,-0.08506298441907365
12/07/2024 19:33:13.775720,-8.9682991048,1.4129617452999998,0.3397808092,0.006566801310628665,0.12095131716320703,-0.16355916752751862
12/07/2024 19:33:13.828450,-10.231709437600001,0.6436692794,0.2584248408,0.025656340004316644,-0.1510364301444593,-0.17974709633976602
12/07/2024 19:33:13.881389,-11.7535446112,0.41515472109999996,-0.24167508259999998,0.07452555906015787,0.048411070127192715,-0.2109012234878648
12/07/2024 19:33:13.934364,-12.7226377642,0.3002992363,-1.9992032822999999,0.12049316823455852,-0.05665775084286592,-0.16920967098085024
12/07/2024 19:33:13.987206,-10.923235169,0.6556333924,0.6759723845,0.17562375598192942,0.4740314248416599,-0.10858129608969723
12/07/2024 19:33:14.039928,-10.7653088774,-0.251246373,-0.741775006,0.18936822384138474,-0.11636982787672193,-0.05619960191421741
12/07/2024 19:33:14.092854,-10.386046495299999,0.1088734283,-0.6544369810999999,0.17623462122012742,0.6922630311879009,-0.015424347264499889
12/07/2024 19:33:14.145761,-9.798608546999999,0.2081755662,-0.3780659708,0.12003501930591003,-0.0557414529855689,0.09529497715889039
12/07/2024 19:33:14.198537,-9.0053878551,0.2344966148,-0.059820565,0.06337726846304409,0.019089538693687978,0.14080443740464255
12/07/2024 19:33:14.251320,-8.243273857,0.8566304908000001,0.48335016519999996,0.05115996369908379,-0.2945897611209929,0.15256359323995436
12/07/2024 19:33:14.304168,-9.044869428,0.6173482308,0.0729810893,0.029474247743054238,-0.16294830228932058,0.12919799787888026
12/07/2024 19:33:14.357059,-9.9972128228,1.1042876299,-0.5419743189,-0.0033597588100890844,-0.06643159465403417,0.1305724446648258
12/07/2024 19:33:14.409867,-11.5046910608,0.9559326287,-1.6402798923,-0.12034045192500901,-0.1753183233628304,0.14477506145292962
12/07/2024 19:33:14.462826,-11.746366143400001,1.1928220661,-1.8783657409999999,-0.2753475061177554,-0.10797043085149921,0.1475239550248207
12/07/2024 19:33:14.515763,-11.2307128731,1.0277173067,-1.9680965885,-0.3900374545894328,0.0004581489286485115,0.1580613803837365
12/07/2024 19:33:14.568609,-11.2845513816,1.4823536007,0.1136590735,-0.4360050637638334,0.1036943741841131,0.08933904108645975
12/07/2024 19:33:14.621440,-9.700502820399999,1.2107682356,-1.5230315848999998,-0.3900374545894328,-0.1580613803837365,0.02901609881440573
12/07/2024 19:33:14.674359,-8.8845503138,1.1234302107,-0.7692924659,-0.43065999292960083,-0.005803219762881146,-0.0160352125026979
12/07/2024 19:33:14.727242,-7.0672015491,0.909272588,0.047856452,-0.3817907738737596,0.219147904203538,-0.06154467274845005
12/07/2024 19:33:14.779978,-7.130611348,1.1018948073,-0.0801595571,-0.30497447017035917,-0.26190847087739905,-0.10262536001726658
12/07/2024 19:33:14.832645,-7.8412796602,0.8602197247000001,0.4618147618,-0.2075414646777757,0.12476922490194463,-0.18555031610264716
12/07/2024 19:33:14.885332,-9.8680004024,0.8721838377000001,-0.7728816998,-0.1111774733520388,0.22937989694335476,-0.20082194705759754
12/07/2024 19:33:14.938032,-11.028519363400001,0.5838487144,-1.5936198516,-0.08063421144213803,0.12064588454410802,-0.13377948716536536
12/07/2024 19:33:14.991638,-11.566904448399999,0.3098705267,-1.3423734786,-0.025961772623415653,0.20250182646264206,-0.07330382858376185
12/07/2024 19:33:15.044915,-11.659028118499998,0.5324030285,-1.7060825138000002,0.0516181126277323,0.12492194121149414,-0.05390885727097486
12/07/2024 19:33:15.097934,-12.958330790300002,1.6426727149,-1.3220344865,0.09101892049150428,0.37201693006259134,-0.04428772976935611
12/07/2024 19:33:15.150824,-11.635099892500001,1.0001998468,-1.7431712641,0.08200865822808356,0.14981469966806327,0.007635815477475192
12/07/2024 19:33:15.203618,-9.8811609267,0.6795616184,-1.6103696098,0.05207626155638081,0.32849278184098274,0.06307183584394509
12/07/2024 19:33:15.256578,-8.1906317598,0.777667345,-0.8829515394,0.006108652381980153,0.03145955976719779,0.05696318346196493
12/07/2024 19:33:15.309521,-7.5876404646,0.7154539574000001,-0.5694917788,-0.023823744289722597,0.06551529679673715,0.03145955976719779
12/07/2024 19:33:15.362321,-7.6761749007999995,0.6867400861999999,-0.8829515394,-0.019242255003237483,-0.08857545953871222,0.017715091907742442
12/07/2024 19:33:15.415230,-8.7900338211,0.9643075078,-0.9296115801,-0.056505034533316414,-0.1192714377581625,-0.015729779883598895
12/07/2024 19:33:15.468268,-10.0247302827,0.8530412569000001,-2.5663022385,-0.11514809740032589,-0.12018773561545952,-0.01557706357404939
12/07/2024 19:33:15.521130,-11.766705135499999,0.8171489179,-3.2518459134,-0.18921550753183525,0.011606439525762293,0.047342055960346185
12/07/2024 19:33:15.574071,-11.5597259806,0.8638089586000001,-4.2556349941,-0.2519819107566813,0.1980730534857065,0.13775011121365247
12/07/2024 19:33:15.627123,-11.493923359100002,1.1509476706000001,-2.3377876802,-0.34956763255881423,0.09636399132573692,0.20693059943957767
12/07/2024 19:33:15.680032,-9.8979106849,0.9966106129000001,-2.1044874766999997,-0.2750420734986564,-0.537103260685605,0.25579981849541894
12/07/2024 19:33:15.732933,-8.8713897895,1.2646067441000002,-1.7659030788,-0.20662516682047868,-0.0030543261909900766,0.16187928812247407
12/07/2024 19:33:15.785767,-8.026723411699999,1.2658031554,-0.5898307709,-0.11407908323347936,0.29153543493000283,0.04856378643674222
12/07/2024 19:33:15.838744,-7.6343005053,1.4464612617,-0.4594219392,0.012828170002158322,0.4830416871050806,-0.11728612573401895
12/07/2024 19:33:15.891691,-7.202396026,1.2897313814,-0.4079762533,0.09758572180213294,0.41233403578366035,-0.22632557075236467
12/07/2024 19:33:15.944481,-8.185846114599999,0.9858429111999999,-0.7429714173,0.15668693359779093,0.09101892049150428,-0.32864549815053223
12/07/2024 19:33:16.007295,-11.139785614300001,1.2095718243,-1.5864413838,0.22800545015740925,-0.4622722690063481,-0.3000875482647751
12/07/2024 19:33:16.060285,-13.575679021100001,1.1688938401,-2.2660030021999997,0.23029619480065178,-1.0096075224317698,-0.22815816646695872
12/07/2024 19:33:16.113193,-12.6305140941,1.1162517428999998,-1.998006871,0.2229658119422756,-0.7822129375125587,-0.19654589039021145
12/07/2024 19:33:16.167072,-12.349357438599998,1.1868400096,-1.8939190879,0.2906191370727058,-0.3436116964863836,-0.2823724563570326
12/07/2024 19:33:16.220039,-9.918249677,0.9032905315,-1.2335000503,0.3233004273162996,-0.18005252895886503,-0.29978211564567603
12/07/2024 19:33:16.272925,-9.4695954395,-0.0705882667,-1.7898313048,0.2739730593318099,-0.26862798849757724,-0.27061330052172083
12/07/2024 19:33:16.325892,-9.1908316066,0.0083748791,-0.921236701,0.26129760563920107,0.4715879638888678,-0.25564710218586945
12/07/2024 19:33:16.378689,-8.3808611565,0.4474578262,-0.8470592004,0.21975876944173603,0.24419337896965665,-0.1389718416900485
12/07/2024 19:33:16.431641,-7.418946471299999,0.4630111731,-0.0574277424,0.14889840181076625,-0.21395554967885486,-0.04169155250701455
12/07/2024 19:33:16.484575,-7.986045427500001,0.299102825,-0.1351944769,0.14416419621473162,-0.12461650859239512,-0.0039706240482871
12/07/2024 19:33:16.537437,-8.653642932899999,0.6293123438,-0.1507478238,0.12140946609185554,-0.12507465752104363,0.03558290012503439
12/07/2024 19:33:16.590239,-11.0584296459,0.5922235935,-1.1473584366999998,0.036499197982331415,-0.21426098229795387,0.11331550168573185
12/07/2024 19:33:16.643265,-12.6903346591,0.5252245607,-2.1272192914,-0.057574048700162944,-0.4378376594784275,0.1870774791981422
12/07/2024 19:33:16.696201,-12.3864461889,0.6125625856,-1.7312071511,-0.13805554383275148,-0.16905695467130075,0.20967949301146876
12/07/2024 19:33:16.749171,-12.3218399787,0.3050848815,-1.6331014245,-0.25747969790046343,-0.11438451585257838,0.24144448539776556
12/07/2024 19:33:16.802038,-9.3547399547,0.5946164161,-0.5970092387,-0.28145615849973554,-0.0317649923862968,0.25014931504208726
12/07/2024 19:33:16.854866,-9.8356972973,0.8685946038000001,-1.5852449725,-0.3034473070748641,-0.24174991801686457,0.2530509249235278
12/07/2024 19:33:16.907798,-8.2707913169,1.1246266219999999,-0.36011980130000004,-0.27198774730766634,0.2669481090925327,0.1753183233628304
12/07/2024 19:33:16.960703,-7.7347990545,1.3399806559999998,-0.1172483074,-0.20066923074804804,0.30039298088387406,0.09056077156285577
12/07/2024 19:33:17.013540,-7.5206414318,1.2502498085,0.0370887503,-0.12110403347275654,0.33383785267521543,0.014049900478554353
12/07/2024 19:33:17.066490,-8.4430745441,1.2646067441000002,0.2213360905,-0.019700403931885994,0.21670444325074595,-0.08659014751456867
12/07/2024 19:33:17.119478,-9.6705925379,1.2215359373,-0.2105683888,0.10537425358915764,0.1624901533606721,-0.16264286967022157
12/07/2024 19:33:17.172397,-11.264212389499999,1.0995019847,-1.2394821068,0.20128009598624608,-0.11621711156717243,-0.1873829118172412
12/07/2024 19:33:17.225160,-11.909078080199999,0.5419743189,-1.4237294470000001,0.2906191370727058,0.04077525464971753,-0.1751656070532809
12/07/2024 19:33:17.278086,-12.1734849775,0.7190431913,-1.9262221929999999,0.36270123518007163,-0.06123924012935104,-0.1435533309765336
12/07/2024 19:33:17.331087,-11.168499485499998,0.47736810869999996,-1.7754743692000001,0.3990477168528535,0.06490443155853913,-0.061850105367549056
12/07/2024 19:33:17.383917,-10.614561053600001,0.1328016543,-2.3940190112999997,0.3824016391119576,-0.239153740754523,0.02306016274197508
12/07/2024 19:33:17.437131,-10.1922278647,0.3242274623,-1.8448662246,0.35140022827340833,0.1632537349084196,0.08811731061006371
12/07/2024 19:33:17.490037,-8.8498543861,0.7369893608,-0.921236701,0.31841350541071545,-0.15347989109725135,0.19303341527057286
12/07/2024 19:33:17.543013,-7.7682985709,0.7477570625,-0.6675975054,0.3080287963613492,-0.2157881453934489,0.21853703896534
12/07/2024 19:33:17.595810,-7.7252277641000004,0.9619146851999999,-0.32542387359999997,0.2981022362406315,-0.24007003861182005,0.21639901063164693
12/07/2024 19:33:17.648850,-8.5986080131,1.1952148887,-0.5036891573,0.27748553445144847,-0.25809056313866147,0.1907426706273303
12/07/2024 19:33:17.701879,-10.5116696818,1.4249258583,-1.1090732750999999,0.2547308043285724,-0.047647488579445195,0.13729196228500395
12/07/2024 19:33:17.754676,-11.8935247333,1.6474583601,-2.2121644937,0.16142113919382553,0.037415495839628436,0.08429940287132612
12/07/2024 19:33:17.807384,-11.057233234599998,1.5732808595,-2.2743778813,0.027641652028460195,0.07605272215565291,0.05390885727097486
12/07/2024 19:33:17.860252,-11.447263318400001,1.4632110199,-1.9046867896,-0.09254608358699933,0.14859296919166723,0.0160352125026979
12/07/2024 19:33:17.917046,-9.9266245561,1.2143574695,-1.9716858223999998,-0.16600262848031067,-0.1760819049105779,-0.004428772976935611
12/07/2024 19:33:17.969918,-9.3966143502,1.1497512593,-2.0985054202,-0.2472477051606467,0.11316278537618234,-0.047952921198544204
12/07/2024 19:33:18.022641,-8.7194455544,1.3232308977999998,-1.160518961,-0.2542726553999239,0.10308350894591509,-0.07864889941799447
12/07/2024 19:33:18.075664,-8.6297147069,1.1461620254,-0.7956135145,-0.24678955623199822,-0.20280725908174108,-0.07116580025006879
12/07/2024 19:33:18.128484,-8.49452023,1.4584253747,-0.8147560952999999,-0.2057088689631817,-0.06902777191637574,-0.07880161572754397
12/07/2024 19:33:18.191107,-8.937192411,1.6354942471,-0.6628118601999999,-0.1951714436042659,-0.17638733752967692,-0.06062837489115302
12/07/2024 19:33:18.243773,-9.857232700700001,1.4069796888000001,-0.7561319416,-0.14920383442986526,-0.2154827127743499,-0.04306599929296008
12/07/2024 19:33:18.296418,-11.1720887194,1.3172488413,-1.0073783146,-0.05803219762881146,-0.22800545015740925,-0.06643159465403417
12/07/2024 19:33:18.349161,-10.914860289900002,1.0827522265,-0.4630111731,0.04627304179349966,0.02107485071783153,-0.12675453692608818
12/07/2024 19:33:18.402070,-11.8181508214,0.6664010940999999,-1.3674981159,0.11438451585257838,-0.22617285444281518,-0.14966198335851374
12/07/2024 19:33:18.455352,-10.992627024399999,0.6376872229,-0.9236295236,0.15286902585905332,0.05406157358052436,-0.13881912538049898
12/07/2024 19:33:18.508306,-10.5092768592,0.24765713909999998,-1.6271193679999998,0.17318029502913734,-0.6307183584394509,-0.06627887834448466
12/07/2024 19:33:18.561108,-9.6813602396,0.4019941968,-1.3411770673,0.19333884788967187,0.14874568550121675,-0.06123924012935104
12/07/2024 19:33:18.614004,-8.7349989013,0.8303094421999999,-0.5312066172,0.1832595714594046,-0.013286318930806833,-0.007635815477475192
12/07/2024 19:33:18.666834,-7.5828548194,0.7549355303,0.015553346899999999,0.1507309975253603,-0.1476766713343702,-0.002901609881440573
12/07/2024 19:33:18.719617,-7.5625158273,0.9798608547,0.3613162126,0.17409659288643436,-0.062002821677098564,-0.036499197982331415
12/07/2024 19:33:18.772430,-8.6656070459,1.0133603711,0.287138712,0.2040289895581371,-0.07864889941799447,-0.061697389057999555
12/07/2024 19:33:18.825281,-9.6717889492,1.0396814197,0.12083754129999999,0.22357667718047364,0.047952921198544204,-0.08277223977583108
12/07/2024 19:33:18.878088,-11.566904448399999,1.0336993632,-0.7884350467,0.22067506729903305,0.052228977865930316,-0.06765332513043021
12/07/2024 19:33:18.930993,-11.9102744915,1.184447187,-1.6558332392,0.18081611050661253,0.21044307455921626,-0.020158552860534508
12/07/2024 19:33:18.983859,-13.138988896599999,1.1593225497000001,-2.6979074815,0.06291911953439558,0.3678935897047547,0.05345070834232634
12/07/2024 19:33:19.036672,-10.5714902468,1.1114660977,-1.3016954943999999,-0.07238753072646481,0.0070249502392771765,0.15745051514553846
12/07/2024 19:33:19.089516,-9.954142016,1.0193424276,-1.9274186043000001,-0.16951510359994926,-0.297644087311983,0.18264870622120657
12/07/2024 19:33:19.142555,-8.9240318867,1.2945170266,-1.1868400096,-0.21319196813110736,-0.1545489052640979,0.12950343049797924
12/07/2024 19:33:19.195427,-8.170292767700001,1.3471591237999998,-0.4402793584,-0.20005836550985004,0.12079860085365753,0.05772676500971245
12/07/2024 19:33:19.248301,-7.4967132058,1.4285150922,-0.17706887240000002,-0.17791450062517197,-0.14156801895239005,-0.01114829059711378
12/07/2024 19:33:19.301259,-7.956135144999999,1.4344971487,-0.0777667345,-0.14920383442986526,0.15653421728824143,-0.13133602621257331
12/07/2024 19:33:19.354166,-8.9240318867,1.4763715442,-0.1890329854,-0.11591167894807342,0.14217888419058808,-0.20509800372498366
12/07/2024 19:33:19.407008,-10.945966983699998,1.2669995667,-0.7310073043,-0.08246680715673206,0.0517708289372818,-0.20525072003453315
12/07/2024 19:33:19.459875,-11.794222595399999,1.1497512593,-1.0660024683,-0.020616701789183015,-0.0032070425005395805,-0.18142697574481054
12/07/2024 19:33:19.512767,-11.2127667036,0.5670989562,-0.8482556117000001,0.0478002048889947,0.038637226316024474,-0.1748601744341819
12/07/2024 19:33:19.565630,-12.1387890498,0.2572284295,-1.6905291669,0.11652254418627142,0.20173824491489456,-0.16081027395562753
12/07/2024 19:33:19.618505,-10.5056876253,0.346959277,-1.3651052933,0.1435533309765336,0.19975293289075102,-0.08781187799096471
12/07/2024 19:33:19.671315,-9.8321080634,0.0466600407,-1.8532411037,0.13255775668896932,-0.1823432736021076,-0.02229658119422756
12/07/2024 19:33:19.724151,-9.3750789468,0.3014956476,-1.6522440053,0.14950926704896425,0.30573805171810664,0.020463985479633514
12/07/2024 19:33:19.777080,-9.4097748745,0.8446663778000001,-1.6606188843999998,0.12614367168789017,0.1908953869368798,0.04642575810304917
12/07/2024 19:33:19.830023,-8.3246298254,0.6831508522999999,-0.8685946038000001,0.11102475704248929,0.026572637861613665,0.07620543846520242
12/07/2024 19:33:19.882933,-8.5351982142,0.741775006,-0.8434699665000001,0.11820242359131597,-0.027183503099811684,0.11316278537618234
12/07/2024 19:33:19.935774,-8.6488572877,0.8913264185,-1.2885349701,0.12599095537834065,-0.06688974358268268,0.13240504037941983
12/07/2024 19:33:19.988558,-9.6442714893,1.0420742423,-1.3651052933,0.10613783513690517,0.036499197982331415,0.10674870037510319
12/07/2024 19:33:20.041513,-10.7377914175,1.1150553316,-2.8582265956999997,0.03252857393404432,-0.08445211918087563,0.0916297857297023
12/07/2024 19:33:20.094378,-10.339386454600001,1.0456634762,-2.4358934068,-0.09834930334988047,0.014813482026301871,0.059253928105207486
12/07/2024 19:33:20.147194,-11.3204437206,1.4153545679,-3.9302111204999997,-0.23548854932533492,0.35705073172673996,0.0016798794050445422
12/07/2024 19:33:20.200108,-10.6325072231,1.232303639,-1.6378870697,-0.29123000231090385,0.4914410841303033,0.0035124751196385882
12/07/2024 19:33:20.253922,-9.140582332,1.3603196481,-2.4921247379,-0.2692388537357753,0.25595253480496843,-0.023823744289722597
12/07/2024 19:33:20.306720,-8.8043907567,1.5026925928000001,-2.3700907853,-0.2515237618280328,0.6675229890408814,-0.17134769931454333
12/07/2024 19:33:20.359647,-8.5052879317,1.0265208954,-2.0973090089,-0.22143864884678055,0.6600398898729556,-0.25671611635271596
12/07/2024 19:33:20.412391,-7.800601675999999,1.1330015010999999,-1.9692929998,-0.1983784861048055,0.41859540447519,-0.2999348319552255
12/07/2024 19:33:20.465277,-7.735995465799999,1.136590735,-2.0506489682,-0.19914206765255302,0.3414736681526906,-0.3217732642208046
12/07/2024 19:33:20.518164,-8.240881034400001,1.0360921858,-1.8269200550999998,-0.15668693359779093,0.11621711156717243,-0.3094032431472948
12/07/2024 19:33:20.571027,-9.3702933016,0.574277424,-2.4370898181,-0.09819658704033096,-0.11468994847167738,-0.2910772860013543
12/07/2024 19:33:20.623813,-11.6422783603,0.4606183505,-4.319044793,-0.058337630247910464,0.08246680715673206,-0.2547308043285724
12/07/2024 19:33:20.676640,-11.801401063199998,0.1280160091,-4.2652062845000005,-0.019547687622336492,0.10827586347059823,-0.16264286967022157
12/07/2024 19:33:20.729583,-12.1256285255,0.2799602442,-5.1062834284,0.01313360262125733,0.07895433203709348,-0.10781771454194972
12/07/2024 19:33:20.782480,-10.133603711,0.5324030285,-3.5569307949000004,0.09743300549258344,0.2680171232593792,-0.047494772269895694
12/07/2024 19:33:20.835348,-9.5533442305,0.1004985492,-4.5655055207999995,0.11331550168573185,-0.2950479100496414,-0.019700403931885994
12/07/2024 19:33:20.888694,-8.2827554299,0.4271188341,-3.8333018051999996,0.11652254418627142,0.13301590561761784,-0.06719517620178168
12/07/2024 19:33:20.941544,-7.8017980873,0.4989035121,-2.8965117573,0.12385292704464762,0.10216721108861807,-0.08979719001510825
12/07/2024 19:33:20.994358,-8.0793655089,0.3840480273,-2.5411776012,0.1276708347833852,0.16768250788535521,-0.05406157358052436
12/07/2024 19:33:21.047162,-8.0697942185,0.6197410534,-2.4981067944,0.1195768703772615,-0.2759583713559534,0.011453723216212788
12/07/2024 19:33:21.101171,-9.1190469286,0.7034898444000001,-3.0843483314,0.10384709049366261,-0.4537201556715759,0.028557949885757217
12/07/2024 19:33:21.153977,-9.665806892700001,0.9678967417,-3.4372896648999998,0.08292495608538057,-0.3051271864799087,0.02550362369476714
12/07/2024 19:33:21.206800,-10.9675023871,0.9224331123,-4.9160540317,-0.024434609527920613,-0.4528038578142789,0.05726861608106394
12/07/2024 19:33:21.259544,-10.916056701199999,0.7824529901999999,-5.0811587911,-0.11606439525762292,-0.1832595714594046,0.08827002691961322
12/07/2024 19:33:21.312482,-11.3084796076,0.9643075078,-5.2259245584,-0.24052818754046854,0.09437867930159337,0.08048149513258852
12/07/2024 19:33:21.365300,-9.2805624541,0.6089733517,-3.0819555088,-0.29703322207378496,-0.0557414529855689,0.08155050929943505
12/07/2024 19:33:21.418072,-8.6105721261,0.8315058535,-4.3716868902,-0.35552356863124496,-0.31306843457648287,0.040622538340168025
12/07/2024 19:33:21.470929,-8.1906317598,1.0253244841,-2.4957139718,-0.4013384614960961,-0.08307767239493008,-0.05207626155638081
12/07/2024 19:33:21.523747,-7.6630143765,0.9655039191,-2.069791549,-0.34452799434368064,-0.21639901063164693,-0.14049900478554353
12/07/2024 19:33:21.576500,-7.3746792532,0.9200402897,-1.4440684390999998,-0.2643519318301911,-0.13408491978446438,-0.19914206765255302
12/07/2024 19:33:21.629323,-8.0327054682,0.9415756931,-1.6211373115,-0.13332133823671685,-0.059101211795657985,-0.2547308043285724
12/07/2024 19:33:21.682187,-9.2829552767,0.7836494015,-1.9992032822999999,-0.036804630601430424,0.018173240836390957,-0.2661845275447852
12/07/2024 19:33:21.734939,-10.3872429066,0.6604190376,-2.5136601413,0.06902777191637574,-0.23609941456353292,-0.18768834443634022
12/07/2024 19:33:21.787607,-11.4317099715,0.1256231865,-3.3511480513,0.14844025288211773,-0.29642235683558693,-0.06032294227205401
12/07/2024 19:33:21.840441,-11.632707069899999,0.06340979890000001,-3.3559336964999997,0.20265454277219158,-0.3078760800517997,0.023823744289722597
12/07/2024 19:33:21.894525,-11.781062071100001,0.5300102059,-2.7768706272999997,0.2735149104031614,-0.0873537290623162,0.08521570072862314
12/07/2024 19:33:21.947700,-10.6325072231,0.2919243572,-2.2779671152,0.31230485302873534,-0.24923301718479024,0.1511891464540088
12/07/2024 19:33:22.000524,-9.8955178623,-0.3780659708,-1.7168502155,0.34086280291449256,-0.561690586523075,0.2231185282518251
12/07/2024 19:33:22.053399,-9.117850517299999,-0.49531427819999996,-0.9499505722,0.5059491335375061,-0.3150537466006264,0.2738203430222604
12/07/2024 19:33:22.106234,-8.3282190593,-0.3026920589,-0.6400800455,0.6782131307093465,-0.29565877528783946,0.3203988174348591
12/07/2024 19:33:22.159121,-8.6033936583,0.3684946804,-1.5445669883000002,0.7829765190603062,0.3477350368442202,0.34132095184314104
12/07/2024 19:33:22.211914,-9.4947200768,0.6580262149999999,-2.0087745727,0.6991352651176285,-0.029474247743054238,0.4793764956758925
12/07/2024 19:33:22.264770,-9.9122676205,0.6711867393,-1.7515461432000001,0.5720752955724414,-0.4738787085321104,0.5313000409227239
12/07/2024 19:33:22.317779,-10.1491570579,1.3028919057000001,-2.4957139718,0.5131268000863328,-0.5473352534254218,0.5212207644924566
12/07/2024 19:33:22.370668,-10.1671032274,1.6761722313,-2.6368905052,0.5183191546110161,-0.4914410841303033,0.44638977281319975
12/07/2024 19:33:22.423498,-10.685149320299999,1.1246266219999999,-3.7339996673,0.4874704600820162,0.1075122819228507,0.30314187445576507
12/07/2024 19:33:22.476332,-10.4339029473,1.2729816232,-2.3880369548,0.4030183409011406,0.1281289837120337,0.2805398606424386
12/07/2024 19:33:22.529214,-9.2279203569,1.0444670649,-3.0017959517,0.3446807106532302,-0.5755877706920799,0.2510656128993843
12/07/2024 19:33:22.582076,-9.2171526552,0.8195417405,-2.2528424779,0.29596420790693845,0.08506298441907365,0.10308350894591509
12/07/2024 19:33:22.634924,-8.8618184991,1.2095718243,-1.8221344098999999,0.2625193361155971,0.3020728602889186,0.06948592084502425
12/07/2024 19:33:22.687742,-8.128418372199999,1.6498511827,-1.2287144051,0.22327124456137462,-0.05070181477043527,0.05696318346196493
12/07/2024 19:33:22.740599,-8.0004023631,2.0841484846,-1.0719845248,0.258243279448211,0.038942658935123484,-0.04871650274629172
12/07/2024 19:33:22.793451,-8.5986080131,2.0590238472999998,-1.1796615418,0.3075706474327007,-0.05451972250917286,-0.11270463644753383
12/07/2024 19:33:22.846272,-9.379864592,2.1188444122999996,-1.3411770673,0.36835173863340326,-0.24678955623199822,-0.17547103967237992
12/07/2024 19:33:22.899175,-10.1659068161,2.1643080417,-2.3904297774,0.4140139151887049,-0.0759000058461034,-0.2081523299159737
12/07/2024 19:33:22.952008,-10.6827564977,1.8245272325,-1.7694923127,0.37552940518222994,-0.3804163270878141,-0.17791450062517197
12/07/2024 19:33:23.004845,-12.2057880826,1.6534404165999999,-3.2386853891,0.40271290828204165,-0.08429940287132612,-0.12339477811599911
12/07/2024 19:33:23.057849,-10.7282201271,1.3674981159,-1.9764714676,0.37690385196817544,-0.06658431096358366,-0.06429356632034111
12/07/2024 19:33:23.110653,-10.1647104048,0.9140582332,-2.1954147355,0.3316998243415223,-0.12370021073509811,-0.028099800957108706
12/07/2024 19:33:23.163479,-10.073783146,0.6592226263,-2.6548366747000003,0.2431243648028101,-0.5100724738953428,-0.012064588454410803
12/07/2024 19:33:23.216295,-9.3571327773,0.7250252478,-1.782652837,0.16798794050445423,-0.23671027980173096,-0.036193765363232405
12/07/2024 19:33:23.269222,-8.2085779293,0.933200814,-1.0719845248,0.10858129608969723,-0.16096299026517705,-0.10445795573186063
12/07/2024 19:33:23.322164,-8.2037922841,0.8446663778000001,-1.0791629926,0.08109236037078654,-0.009621127501618741,-0.15699236621688992
12/07/2024 19:33:23.375273,-8.8582292652,0.7226324252,-1.2466605746,0.0757472895365539,0.027183503099811684,-0.1432478983574346
12/07/2024 19:33:23.428136,-8.6356967634,1.0157531937,-1.2287144051,0.04306599929296008,0.1715004156240928,-0.13332133823671685
12/07/2024 19:33:23.480989,-9.5700939887,1.0109675485,-1.2167502921,0.006872233929727673,0.11636982787672193,-0.12034045192500901
12/07/2024 19:33:23.533882,-10.5152589157,0.9726823869,-2.0865413072,-0.06902777191637574,-0.1357647991895089,-0.11346821799528134
12/07/2024 19:33:23.586750,-10.730612949700001,0.9954142015999999,-1.79461695,-0.11377365061438036,-0.14019357216644454,-0.1311833099030238
12/07/2024 19:33:23.639612,-11.874382152499999,0.8961120637,-2.9288148624,-0.12996157942662775,0.08979719001510825,-0.1507309975253603
12/07/2024 19:33:23.692391,-11.662617352400002,0.8063812161999999,-1.6606188843999998,-0.14553864300067715,0.3094032431472948,-0.10735956561330119
12/07/2024 19:33:23.745296,-10.417153189099999,0.4414757697,-2.404786713,-0.20479257110588464,-0.17318029502913734,-0.04153883619746504
12/07/2024 19:33:23.798130,-10.2029955664,-0.0059820565,-2.1966111468,-0.2545780880190229,-0.08704829644321718,0.017409659288643436
12/07/2024 19:33:23.851054,-9.4707918508,0.5611168997,-1.4775679554999999,-0.23411410253938938,0.1035416578745636,-0.01756237559819294
12/07/2024 19:33:23.905269,-8.506484343,0.6484549246,-1.1569297271,-0.16966781990949875,-0.02107485071783153,-0.07681630370340044
12/07/2024 19:33:23.968251,-8.685946038,0.9714859755999999,-0.8518448456000001,-0.08231409084718257,-0.07666358739385093,-0.18906279122228575
12/07/2024 19:33:24.021936,-8.3832539791,0.9068797654,-0.9080761767,-0.03405573702953935,-0.05604688560466791,-0.26954428635487426
12/07/2024 19:33:24.075567,-9.4600241491,0.7752745223999999,-1.4584253747,-0.013286318930806833,-0.019547687622336492,-0.28741209457216627
12/07/2024 19:33:24.129185,-9.8045906035,0.6568298037,-1.7048861025,-0.002901609881440573,0.01069014166846527,-0.2632829176633446
12/07/2024 19:33:24.182847,-10.803594039,0.5587240770999999,-1.722832272,-0.025198191075668133,-0.2550362369476714,-0.1823432736021076
12/07/2024 19:33:24.236488,-10.6803636751,-0.0011964113,-2.1427726383,-0.0436768645311581,-0.3814853412546606,-0.11163562228068731
12/07/2024 19:33:24.289731,-11.2857477929,0.051445685899999996,-2.2360927197000002,0.02199114857512855,0.10903944501834573,-0.10399980680321212
12/07/2024 19:33:24.343189,-10.881360773499999,0.2560320182,-1.7395820302,0.05238169417547982,0.32070425005395803,-0.04474587869800463
12/07/2024 19:33:24.396038,-9.8057870148,-0.13758729949999998,-1.3016954943999999,0.07681630370340044,-0.059101211795657985,0.03130684345764829
12/07/2024 19:33:24.449403,-10.0414800409,-0.045463629400000004,-2.0231315083,0.09208793465835081,0.0319177086958463,0.08002334620394001
12/07/2024 19:33:24.502776,-10.0749795573,-0.0251246373,-1.5254244074999999,0.08628471489546966,0.021227567027381034,0.10888672870879623
12/07/2024 19:33:24.555713,-9.1920280179,0.021535403399999997,-0.8231309743999999,0.10842857978014774,0.1482875365725682,0.12858713264068222
12/07/2024 19:33:24.609030,-8.6069828922,-0.056231331100000004,-0.909272588,0.14706580609617217,-0.2587014283768595,0.1475239550248207
12/07/2024 19:33:24.662027,-8.5148592221,0.1782652837,-0.538385085,0.17058411776679577,0.08979719001510825,0.11881328882951399
12/07/2024 19:33:24.715422,-9.353543543399999,0.3625126239,-0.8626125473,0.18845192598408772,-0.0954476934684399,0.11575896263852391
12/07/2024 19:33:24.768762,-10.7294165384,0.5252245607,-2.3341984463,0.13836097645185047,-0.00015271630954950385,0.1322523240698703
12/07/2024 19:33:24.822141,-10.987841379199999,0.6089733517,-2.5495524802999996,0.07513642429835589,-0.3620903699418736,0.1392772743091475
12/07/2024 19:33:24.875541,-11.4125673907,0.7190431913,-3.4516466004999997,-0.006719517620178169,-0.09437867930159337,0.12446379228284563
12/07/2024 19:33:24.929193,-10.912467467299999,1.0001998468,-2.5938196984,-0.09957103382627651,0.11423179954302887,0.11591167894807342
12/07/2024 19:33:24.982656,-9.564111932200001,0.7334001269,-1.9956140484,-0.14401147990518212,-0.11224648751888533,0.13026701204572677
12/07/2024 19:33:25.035914,-9.1058864043,0.7788637562999999,-2.0769700168,-0.19685132300931046,-0.049938233222687756,0.08200865822808356
12/07/2024 19:33:25.088776,-9.1202433399,0.9044869428,-1.9956140484,-0.18524488348354815,0.13072516097437528,-0.01389718416900485
12/07/2024 19:33:25.141497,-9.1477607998,0.8231309743999999,-1.3196416639,-0.16126842288427606,0.10888672870879623,-0.06459899893944013
12/07/2024 19:33:25.194202,-8.8570328539,0.8985048863,-1.220339526,-0.08994990632465776,0.16019940871742955,-0.06490443155853913
12/07/2024 19:33:25.247062,-9.9948200002,0.9966106129000001,-0.7860422241,-0.004428772976935611,-0.09529497715889039,0.01756237559819294
12/07/2024 19:33:25.300364,-11.6303142473,1.3447663012,-0.5670989562,0.099418317516727,0.04902193536539073,0.1747074581246324
12/07/2024 19:33:25.353361,-11.747562554699998,1.6115660211,-2.0063817501,0.1389718416900485,0.08475755179997463,0.3984368516146555
12/07/2024 19:33:25.406215,-11.888739088100001,1.8592231602,-3.1166514365,0.07819075048934597,-0.699287981427178,0.5862779123605453
12/07/2024 19:33:25.459096,-10.9842521453,1.8580267489000002,-3.5688949079,0.011453723216212788,-0.8619308510973996,0.7229590094073511
12/07/2024 19:33:25.511946,-9.966106129,2.3940190112999997,-2.8510481279,0.0004581489286485115,0.050396382151336266,0.6490443155853913
12/07/2024 19:33:25.564784,-7.138986227099999,2.7529424013,-1.5852449725,0.050396382151336266,0.35124751196385884,0.49388454508309537
12/07/2024 19:33:25.617629,-6.531209286699999,2.4215364712,-0.7489534738,0.15760323145508795,-0.21120665610696382,0.260992173020102
12/07/2024 19:33:25.670451,-7.6761749007999995,2.0267207422,-1.2167502921,0.22403482610912212,-0.2064724505109292,0.0641408500107916
12/07/2024 19:33:25.723287,-8.2636128491,1.7635102562,-1.1186445655,0.21532999646480042,0.2852740662384731,-0.11407908323347936
12/07/2024 19:33:25.776116,-9.3056870914,1.3639088819999998,-2.0243279196,0.15271630954950383,-0.3020728602889186,-0.2426662158741616
12/07/2024 19:33:25.828963,-9.598807859899999,0.5515456093,-1.7730815466,0.06979135346412325,-0.08353582132357859,-0.31306843457648287
12/07/2024 19:33:25.881864,-9.247062937699999,-0.0143569356,-1.0396814197,0.03665191429188092,0.18264870622120657,-0.3278819166027847
12/07/2024 19:33:25.934727,-8.4574314797,-0.1148554848,-0.5312066172,0.07360926120286085,0.2347249677775874,-0.3930917807804229
12/07/2024 19:33:25.987622,-9.4265246327,-0.22492532440000002,-0.4450650036,0.1983784861048055,0.1875356281267907,-0.4520402762665313
12/07/2024 19:33:26.040414,-10.540383553,-0.6544369810999999,-1.6917255782,0.27550022242730493,0.1511891464540088,-0.4621195526967986
12/07/2024 19:33:26.093384,-10.7820586356,-0.4462614149,-1.2143574695,0.36483926351376467,-0.11514809740032589,-0.39981129840060103
12/07/2024 19:33:26.146180,-11.072786581499999,0.1256231865,-1.2430713407,0.5400048705670456,-0.26389378290154264,-0.3656028450615122
12/07/2024 19:33:26.199068,-10.612168230999998,0.3816552047,-0.2644068973,0.7272350660747372,-0.1840231530071521,-0.40530908554438316
12/07/2024 19:33:26.253033,-11.5633152145,-0.2691925425,-0.7549355303,0.9211847792026071,-0.05146539631818279,-0.37659841934907645
12/07/2024 19:33:26.305839,-10.140782178799999,-0.40677984199999995,-1.8699908619,0.9926560120717749,-0.2347249677775874,-0.2953533426687404
12/07/2024 19:33:26.358759,-10.450652705500001,-0.6460621019999999,-1.6187444889,1.0031934374306906,-0.05238169417547982,-0.23701571242082994
12/07/2024 19:33:26.411486,-10.2101740342,-0.5934200048,-2.3784656644,0.9543242183748495,-0.11988230299636052,-0.1035416578745636
12/07/2024 19:33:26.464296,-10.085747259,-0.5288137946,-2.3665015514,0.9190467508689141,-0.18784106074588972,-0.0012217304763960308
12/07/2024 19:33:26.517092,-9.8297152408,-0.430708068,-2.8139593776000003,0.8817839713388351,-0.003665191429188092,0.0795651972752915
12/07/2024 19:33:26.571528,-9.1944208405,-0.16151552549999998,-2.7637101029999998,0.8075638448977763,0.0757472895365539,0.14538592669112765
12/07/2024 19:33:26.625456,-9.667003304,-0.1543370577,-3.7471601916,0.6919575985688019,-0.00992656012071775,0.19135353586552828
12/07/2024 19:33:26.678996,-8.6596249894,-0.1483550012,-3.7136606752,0.6049093021255847,0.08506298441907365,0.1759291886010284
12/07/2024 19:33:26.732239,-8.9682991048,-0.0753739119,-3.1680971224,0.4900666373443578,0.058948495486108476,0.1840231530071521
12/07/2024 19:33:26.785879,-9.4121676971,0.2572284295,-3.1920253483999996,0.3762929867299774,0.17654005383922644,0.17241671348138984
12/07/2024 19:33:26.839557,-9.93021379,0.4845465765,-2.8390840148999996,0.27427849195090886,0.3541491218452994,0.1832595714594046
12/07/2024 19:33:26.893233,-9.2817588654,0.13758729949999998,-1.7479569093,0.20509800372498366,-0.12339477811599911,0.22036963467993403
12/07/2024 19:33:26.946860,-9.6729853605,-0.15672988029999999,-2.1164515897,0.14889840181076625,0.1556179194309444,0.1627955859797711
12/07/2024 19:33:27.000273,-9.6418786667,-0.23928226,-1.0277173067,0.18066339419706304,0.16340645121796912,0.0636827010821431
12/07/2024 19:33:27.053867,-10.0821580251,-0.5288137946,-1.2275179938,0.14202616788103856,0.10522153727960813,0.01389718416900485
12/07/2024 19:33:27.107184,-10.444670648999999,-0.18185451760000002,-1.1377871463,0.08949175739600926,0.15699236621688992,0.0013744467859455344
12/07/2024 19:33:27.160502,-10.0163554036,-0.34815568830000004,-1.3938191645,0.14080443740464255,0.061391956438900545,0.02550362369476714
12/07/2024 19:33:27.215151,-10.3752787936,0.5599204884,-2.572284295,0.14202616788103856,-0.11835513990086548,0.12110403347275654
12/07/2024 19:33:27.268597,-9.7962157244,0.6137589969,-1.507478238,0.061850105367549056,-0.30115656243162153,0.22953261325290425
12/07/2024 19:33:27.321774,-11.252248276500001,1.5409777544,-2.0733807828999997,0.031001410838549282,0.0070249502392771765,0.3036000233844136
12/07/2024 19:33:27.374604,-11.1804635985,1.9573288867999998,-2.2145573163,-0.04016438941151951,-0.07727445263204895,0.46838092138832826
12/07/2024 19:33:27.427538,-10.6205431101,2.165504453,-2.7110680058,-0.09224065096790032,0.05467243881872237,0.5920811321234264
12/07/2024 19:33:27.509288,-9.6705925379,2.0039889275,-1.7503497318999999,0.0398589567924205,-0.8225300432336277,0.6772968328520494
12/07/2024 19:33:27.562279,-8.7984087002,2.0853448959,-0.7393821834000001,0.27275132885541387,-0.9141598289633299,0.6635523649925941
12/07/2024 19:33:27.615632,-8.761319949899999,2.4574288102,-0.0729810893,0.4999931974650756,-1.0589348904162597,0.5929974299807234
12/07/2024 19:33:27.668636,-8.1762748242,2.8187450228000004,0.0490528633,0.5907066853374808,-0.6652322443976387,0.4529565741238284
12/07/2024 19:33:27.721773,-8.3018980107,2.6811577232999997,0.6400800455,0.6973026694030345,-0.853836886691276,0.2550362369476714
12/07/2024 19:33:27.775118,-8.0961152671,2.8857440556,1.0109675485,0.8097018732314694,-0.6194173515327875,0.06734789251133119
12/07/2024 19:33:27.828780,-8.3760755113,3.0664021618999997,0.9547362173999999,1.055116982677522,-0.46777005615013023,-0.13347405454626635
12/07/2024 19:33:27.882353,-9.010173500299999,2.6021945774999997,0.8901300072,1.2622002984266492,-0.7687739022722023,-0.29947668302657704
12/07/2024 19:33:27.935943,-8.8163548697,2.5160529638999996,1.1688938401,1.3840679134471532,-0.26725354171163174,-0.4271475178099622
12/07/2024 19:33:27.989069,-9.1573320902,2.6488546182,0.5096712138,1.4895948833458603,-0.2226603793231766,-0.4462370565036502
12/07/2024 19:33:28.042430,-9.6179504407,2.1403798157,0.1962114532,1.5454890526409788,-0.17363844395778588,-0.41095958899771484
12/07/2024 19:33:28.095766,-10.248459195799999,1.7288143285,-0.16151552549999998,1.5737415699076371,-0.11270463644753383,-0.3469714552964727
12/07/2024 19:33:28.149150,-11.1481604934,1.4500504956,-0.5706881900999999,1.551903137642058,0.02580905631386615,-0.22327124456137462
12/07/2024 19:33:28.202790,-11.9449704192,1.232303639,-1.2287144051,1.4805846210824396,0.14492777776247914,-0.04657847441259867
12/07/2024 19:33:28.256226,-12.1639136871,0.37567314820000003,-0.9619146851999999,1.4243850191682221,0.34132095184314104,0.1469130897866227
12/07/2024 19:33:28.309290,-13.2167556311,-0.0071784678,-1.3543375915999998,1.4008667074975987,-0.1111774733520388,0.33994650505719554
12/07/2024 19:33:28.361951,-11.6913312236,-0.287138712,-1.3962119871,1.3538300841563513,0.04230241774521256,0.5039638215133626
12/07/2024 19:33:28.414697,-10.1276216545,0.0059820565,-1.4895320685,1.2993103616471786,-0.11194105489978631,0.5581781114034365
12/07/2024 19:33:28.468077,-8.8390866844,0.5623133109999999,-1.483550012,1.2374602562796297,-0.15790866407418697,0.5526803242596544
12/07/2024 19:33:28.521340,-7.6594251426,0.8386843212999999,-1.8735800958,1.1875220230569419,0.04581489286485115,0.47678031841355095
12/07/2024 19:33:28.574788,-7.4703921572,0.741775006,-2.5292134882000004,1.1510228250746104,0.026878070480712675,0.3817907738737596
12/07/2024 19:33:28.628264,-7.8472617167,1.0947163395,-2.6344976826,1.1096367051866949,0.573755174977486,0.2542726553999239
12/07/2024 19:33:28.687876,-8.2695949056,1.6079767872,-3.5880374887,1.0679451526796804,0.33185254065107184,0.14874568550121675
12/07/2024 19:33:28.745973,-9.2494557603,1.734796385,-3.4600214796,1.01571617481375,0.20173824491489456,0.06963863715457375
12/07/2024 19:33:28.799349,-10.0701939121,1.7551353771,-3.2147571631,0.9854783455229482,0.1232420618064496,0.03420845333908886
12/07/2024 19:33:28.852704,-10.3692967371,1.8041882404,-3.4348968423,0.8877399074112658,0.26038130778190405,0.029779680362153248
12/07/2024 19:33:28.906356,-10.5810615372,1.9357934834,-3.2195428083000004,0.7924449302523754,-0.1907426706273303,0.0438295808407076
12/07/2024 19:33:28.959878,-10.585847182399998,2.1595223965,-1.758724611,0.7580837606037371,-0.3065016332658542,0.048869219055841226
12/07/2024 19:33:29.013177,-9.5342016497,1.9740786449999999,-2.3066809864,0.7379252077432026,-0.05711589977151443,0.002748893571891069
12/07/2024 19:33:29.066754,-9.290133744499999,1.5230315848999998,-2.0961125976,0.7084509600001483,0.15439618895454837,-0.026114488932965158
12/07/2024 19:33:29.120355,-7.746763167499999,1.1688938401,-3.4875389395,0.6553056842769209,0.4546364535288729,-0.08445211918087563
12/07/2024 19:33:29.173868,-7.1090759446,0.7944171031999999,-4.2675991071,0.5916229831947779,0.16462818169436513,-0.11468994847167738
12/07/2024 19:33:29.227439,-7.1521467514,0.7274180704000001,-4.4590249151000005,0.4999931974650756,0.38942658935123475,-0.15745051514553846
12/07/2024 19:33:29.281245,-7.6438717957,0.6783652070999999,-5.0644090329,0.379500029230517,0.8561276313345185,-0.1901318053891323
12/07/2024 19:33:29.334673,-8.5328053916,0.44386859230000003,-5.873183071700001,0.24007003861182005,1.4344642955984894,-0.20418170586768664
12/07/2024 19:33:29.387491,-9.6813602396,-0.0729810893,-5.777470167700001,0.18646661395994418,0.9049968503903597,-0.16355916752751862
12/07/2024 19:33:29.440858,-9.619146852,-0.35772697870000003,-6.9140609027,0.09819658704033096,0.8434521776419097,-0.10155634585042005
12/07/2024 19:33:29.494576,-10.5499548434,-0.023928226,-6.568298037,0.015729779883598895,0.1684460894331027,-0.04505131131710363
12/07/2024 19:33:29.548060,-10.639685690899999,0.3421736318,-6.0849478718,-0.01756237559819294,-0.037110063220529434,0.03298672286269283
12/07/2024 19:33:29.601003,-9.274580397600001,0.2835494781,-5.4855458105,-0.004886921905584123,-0.15347989109725135,0.11270463644753383
12/07/2024 19:33:29.654586,-7.7599236918,0.1088734283,-5.2618168974,-0.01038470904936626,0.20525072003453315,0.10766499823240021
12/07/2024 19:33:29.708169,-6.3744794064,0.3720839143,-5.1996035098,0.02336559536107409,0.30527990278945816,0.09208793465835081
12/07/2024 19:33:29.761474,-5.7798629903,0.4414757697,-4.8957150396,0.07040221870232127,0.2264782870619142,0.06123924012935104
12/07/2024 19:33:29.814820,-6.364908116,0.6412764568,-4.713860522,0.1866193302694937,-0.08567384965727166,0.06001750965295501
12/07/2024 19:33:29.868136,-7.2299134859,0.7130611348,-4.8083770147,0.3000875482647751,0.012522737383059314,0.08689558013366767
12/07/2024 19:33:29.921478,-8.8989072494,0.9116654106,-5.228317381,0.47662760210400146,0.016951510359994926,0.21212295396426084
12/07/2024 19:33:29.974582,-10.3310115755,0.9463613382999999,-4.9698925402,0.7096726904765444,0.15302174216860284,0.4537201556715759
12/07/2024 19:33:30.027981,-9.3619184225,0.9631110964999999,-5.240281494,0.8761334678855035,0.3275764839836857,0.6406449185601686
12/07/2024 19:33:30.081592,-9.4803631412,1.016949605,-5.180460929,1.0633636633931953,-0.44822236852779374,0.7764097177496775
12/07/2024 19:33:30.135119,-9.5294160045,0.9032905315,-4.5906301581,1.1985175973445061,-0.4005748799483486,0.8387179720458751
12/07/2024 19:33:30.188697,-8.25523797,0.9511469834999999,-4.9328037898999995,1.2556334971160203,0.0016798794050445422,0.8837692833629787
12/07/2024 19:33:30.242255,-8.1439717191,0.981057266,-5.072783911999999,1.289994666764659,-0.38011089446871504,0.9188940345593646
12/07/2024 19:33:30.295632,-7.418946471299999,0.9284151688,-5.6183474648,1.2768610641434015,-0.27611108766550296,0.9445503745636812
12/07/2024 19:33:30.348891,-7.1078795333,0.7597211755,-5.9401821045,1.1953105548439664,-0.17562375598192942,0.9442449419445822
12/07/2024 19:33:30.401786,-7.3184479221,0.27517459899999996,-6.0406806537,1.0512990749387845,-0.24052818754046854,0.9152288431301765
12/07/2024 19:33:30.454735,-7.7264241754,0.08614161359999999,-5.8815579507999995,0.8794932266955926,0.1944078620565184,0.8481863832379443
12/07/2024 19:33:30.507634,-8.0183485326,-0.2021935097,-5.8241302084,0.7860308452512963,0.2635883502824436,0.8181012702566921
12/07/2024 19:33:30.560976,-9.3164547931,-0.5587240770999999,-5.6422756908,0.7200573995259106,-0.2437352300410081,0.7484626331021182
12/07/2024 19:33:30.614384,-8.9551385805,-0.2967100024,-5.790630692000001,0.6282748974866588,-0.030543261909900768,0.6656903933262872
12/07/2024 19:33:30.668036,-9.0879402348,-0.610169763,-5.472385286200001,0.5871942102178422,-0.7542658528649995,0.6484334503471934
12/07/2024 19:33:30.721561,-7.9525459111,-0.2667997199,-5.9820565,0.4886921905584123,-0.29825495255018103,0.5668829410477582
12/07/2024 19:33:30.774578,-7.3890361888,-0.33260234139999995,-6.1399827916000005,0.34116823553359155,-0.21716259217939446,0.4738787085321104
12/07/2024 19:33:30.828164,-7.1078795333,-0.6340979889999999,-5.9880385565,0.16600262848031067,-0.12293662918735059,0.3932444970899724
12/07/2024 19:33:30.881777,-7.495516794499999,-1.0205388389,-6.161518194999999,-0.005039638215133627,-0.08567384965727166,0.30527990278945816
12/07/2024 19:33:30.935152,-8.0482588151,-1.172483074,-6.352944002999999,-0.18035796157796402,-0.16508633062301364,0.2105957908687658
12/07/2024 19:33:30.988169,-8.2731841395,-0.9583254512999999,-6.3792650516,-0.33735032779485397,0.058490346557459966,0.11698069311491993
12/07/2024 19:33:31.041127,-7.9824561936,-0.5312066172,-6.753741788499999,-0.5193881687778625,0.09239336727744982,-0.011911872144861299
12/07/2024 19:33:31.094849,-8.115257847899999,-0.5527420206,-6.4187466245,-0.6252205712956687,0.06704245989223219,-0.12278391287780109
12/07/2024 19:33:31.148422,-7.666603610399999,0.43190447930000003,-6.0394842424,-0.7081455273810492,-0.014202616788103856,-0.2713768820694683
12/07/2024 19:33:31.201991,-6.7334027964,0.7824529901999999,-6.2081782357,-0.7910704834664299,0.3249803067213442,-0.4784601978185955
12/07/2024 19:33:31.255609,-6.5994047308,1.0779665813,-6.1878392436,-0.8581129433586621,0.06841690667817772,-0.6293439116535053
12/07/2024 19:33:31.308400,-6.5659052144,0.6831508522999999,-5.8241302084,-0.9388998711103496,0.16936238729039974,-0.736856193576356
12/07/2024 19:33:31.361649,-6.4031932776,0.48574298779999997,-5.6674003281,-0.9822713030224087,0.2712241657599188,-0.8034405045399396
12/07/2024 19:33:31.414730,-6.452246140900001,0.4642075844,-5.8815579507999995,-1.0173960542187945,0.2461786909938002,-0.8145887951370534
12/07/2024 19:33:31.469480,-7.2167529616,0.5503491979999999,-6.6352970698,-1.0432051105326607,0.3659082776806112,-0.7991644478725536
12/07/2024 19:33:31.523097,-8.5005022865,0.6951149653,-6.302694728400001,-1.0881037055402147,0.07070765132142026,-0.7858781289417468
12/07/2024 19:33:31.576351,-9.4767739073,0.8422735552,-5.7212388366,-1.0922270458980514,-0.039095375244672985,-0.7200573995259106
12/07/2024 19:33:31.629516,-9.9278209674,1.0755737587,-5.7846486355,-1.1064296626861552,-0.5035056725847141,-0.6905831517828563
12/07/2024 19:33:31.682648,-11.150553316,1.7682959014000001,-3.9038900719000003,-1.1572841937661402,-0.7883215898945387,-0.6510296276095349
12/07/2024 19:33:31.736174,-9.9732845968,1.5852449725,-3.4863425282,-1.1301006906663285,-0.5403103031861446,-0.6044511531969362
12/07/2024 19:33:31.789384,-9.7615197967,1.1676974288,-2.6715864329,-1.1076513931625513,-0.7864889941799448,-0.561385153903976
12/07/2024 19:33:31.842151,-7.7419775223,1.4967105363,-2.3676979627,-1.0044151679070867,-0.9022479568184687,-0.4228714611425761
12/07/2024 19:33:31.895022,-8.2348989779,1.1688938401,-1.1282158559,-0.9039278362235131,-0.8721628438372163,-0.31306843457648287
12/07/2024 19:33:31.947780,-8.262416437799999,1.2993026717999998,-1.3363914221,-0.7292203780988809,-0.5409211684243426,-0.17699820276787492
12/07/2024 19:33:32.000566,-8.7050886188,1.4368899712999998,-1.3591232368,-0.5650503453331642,-0.1472185224057217,-0.0879645943005142
12/07/2024 19:33:32.053427,-10.0175518149,2.129612114,-1.1222337994,-0.3691153201811508,-0.3520110935116063,-0.013286318930806833
12/07/2024 19:33:32.106207,-11.0703937589,2.6117658679000004,-0.5288137946,-0.16096299026517705,-0.15256359323995436,0.0836885376331281
12/07/2024 19:33:32.159145,-11.6147609004,2.691925425,-0.7369893608,-0.03329215548179183,0.1392772743091475,0.12583823906879116
12/07/2024 19:33:32.211945,-11.3348006562,2.6727828442,-0.9786644433999999,0.07009678608322227,-0.0875064453718657,0.11820242359131597
12/07/2024 19:33:32.264834,-10.0414800409,3.1968109935999998,-1.3579268255,0.06261368691529658,0.30421088862261164,0.04092797095926703
12/07/2024 19:33:32.317646,-8.949156524,2.9958138952,-1.8711872732,0.07040221870232127,-0.34666602267737373,-0.004276056667386108
12/07/2024 19:33:32.370404,-7.633104094,2.7469603447999997,-1.8556339263000001,0.010079276430267254,0.29153543493000283,-0.08872817584826173
12/07/2024 19:33:32.423344,-6.4630138426,2.6057838114000003,-2.5663022385,0.0015271630954950383,0.5380195585429021,-0.11820242359131597
12/07/2024 19:33:32.476169,-6.4474604957,2.1451654609,-3.2913274863,0.05360342465187585,0.43203443971554634,-0.1111774733520388
12/07/2024 19:33:32.528959,-7.453642399,1.8305092889999999,-4.06779842,0.044898595007554123,0.4105014400690663,-0.13332133823671685
12/07/2024 19:33:32.581798,-9.0472622506,1.6019947307,-4.3944187049,-0.014508049407202865,0.4164573761414969,-0.17745635169652346
12/07/2024 19:33:32.634630,-10.725827304500001,1.9429719511999999,-3.9326039431,-0.11346821799528134,0.2645046481397406,-0.260075875162805
12/07/2024 19:33:32.687391,-11.617153723,2.0446669117,-3.8500515634,-0.20601430158228068,0.07116580025006879,-0.3517056608925074
12/07/2024 19:33:32.740153,-11.688938401000001,2.4370898181,-2.8127629663000002,-0.28512134992892363,-0.09498954453979139,-0.43814309209752655
12/07/2024 19:33:32.792954,-10.7641124661,2.1080767106,-2.4837498588,-0.3060434843372057,-0.24404066266010713,-0.4622722690063481
12/07/2024 19:33:32.845726,-9.367900479,1.6271193679999998,-2.7098715945,-0.34422256172458165,-0.3891211567321358,-0.4361577800733829
12/07/2024 19:33:32.898499,-7.9190463947000005,1.1940184774,-2.3892333661,-0.34086280291449256,-0.10415252311276162,-0.36545012875196264
12/07/2024 19:33:32.951276,-7.3519474385,0.9678967417,-2.5531417142,-0.3060434843372057,0.10613783513690517,-0.28802295981036424
12/07/2024 19:33:33.004083,-6.9260250157000005,1.0779665813,-3.2279176874,-0.20662516682047868,0.5157229773486744,-0.1672243589567067
12/07/2024 19:33:33.056914,-7.861618652300001,1.6354942471,-3.2039894614,-0.10598511882735566,0.9289733109896319,-0.09437867930159337
12/07/2024 19:33:33.109809,-9.8153583052,1.9334006607999998,-3.5665020853000002,-0.01435533309765336,0.3613267883941261,-0.003665191429188092
12/07/2024 19:33:33.162619,-11.468798721799999,2.297109696,-2.8115665549999997,0.099723750135826,0.011759155835311794,0.09468411192069237
12/07/2024 19:33:33.215451,-12.7082808286,2.4670001006,-3.2458638569,0.1951714436042659,0.018173240836390957,0.16707164264715718
12/07/2024 19:33:33.268308,-11.4795664235,2.225325018,-2.6333012713,0.27992899540424054,0.009010262263420726,0.2428189321837111
12/07/2024 19:33:33.322257,-9.7292166916,2.1990039694,-3.457628657,0.29581149159738895,-0.2562579674240674,0.22525655658551816
12/07/2024 19:33:33.375173,-7.5792655855,1.6654045296,-3.1872397032,0.2977968036215325,-0.693179329045198,0.17821993324427096
12/07/2024 19:33:33.427946,-6.5587267466,1.4189438018,-3.0197421212,0.25931229361505753,-0.22556198920461717,0.0875064453718657
12/07/2024 19:33:33.480776,-5.9318072254,1.4656038425,-3.4432717214,0.2553416695667704,0.12247848025870207,0.07376197751241036
12/07/2024 19:33:33.533564,-6.7477597320000005,1.2789636797000001,-4.091726646,0.25335635754262686,0.1828014225307561,0.09880745227852898
12/07/2024 19:33:33.586374,-8.4012001486,1.2430713407,-5.2905307686,0.19822576979525597,0.4288273972150068,0.09468411192069237
12/07/2024 19:33:33.639173,-9.7830552001,1.3184452526,-5.198407098500001,0.10461067204141013,0.3187189380298145,0.04153883619746504
12/07/2024 19:33:33.691942,-11.0093767826,1.3663017045999999,-5.747559885199999,-0.02626720524251466,0.23289237206299335,-0.10690141668465268
12/07/2024 19:33:33.744749,-11.892328322000001,1.3722837611,-4.9567320159,-0.1389718416900485,-0.02107485071783153,-0.23304508837254284
12/07/2024 19:33:33.797490,-11.033305008600001,1.2179467034,-4.5308095931,-0.18936822384138474,0.24785857039884474,-0.30314187445576507
12/07/2024 19:33:33.850263,-9.3667040677,0.8171489179,-3.9912280968,-0.24419337896965665,-0.2751947898082059,-0.2984076688597305
12/07/2024 19:33:33.903720,-7.6486574409,0.7022934331,-3.9146577735999997,-0.2901609881440573,-0.20616701789183017,-0.277943683380097
12/07/2024 19:33:33.956563,-6.550351867499999,0.7752745223999999,-3.7579278933,-0.30161471136027007,-0.07788531787024697,-0.2073887483682262
12/07/2024 19:33:34.009432,-6.5419769884,0.7645068207,-3.8177484582999996,-0.3080287963613492,0.13607023180860792,-0.1314887425221228
12/07/2024 19:33:34.062216,-7.728816998,1.2538390423999999,-4.1180476945999995,-0.2658790949256862,0.24007003861182005,-0.05665775084286592
12/07/2024 19:33:34.115056,-10.1072826624,1.7838492483,-4.1240297511,-0.1798998126493155,0.32834006553143325,0.04902193536539073
12/07/2024 19:33:34.167854,-10.9603239193,2.0039889275,-4.223331889,-0.06841690667817772,0.1792889474111175,0.17440202550553338
12/07/2024 19:33:34.220702,-10.564311779,2.2301106632,-4.387240237099999,0.08384125394267761,0.08078692775168753,0.31337386719558186
12/07/2024 19:33:34.273583,-10.0953185494,2.548356069,-4.4997028993,0.14294246573833558,-0.1475239550248207,0.3107776899332403
12/07/2024 19:33:34.326661,-9.1908316066,2.4777678023000003,-3.7471601916,0.12538009014014265,-0.24159720170731505,0.20204367753399358
12/07/2024 19:33:34.379838,-8.3102728898,2.3282163898,-3.5389846254,0.1235474944255486,-0.6818783221385346,0.04902193536539073
12/07/2024 19:33:34.432554,-7.058826669999999,2.225325018,-2.8534409504999996,0.1264491043069892,-0.6606507551111536,-0.05665775084286592
12/07/2024 19:33:34.485396,-6.1830535984,1.8855442087999998,-2.9994031291,0.1264491043069892,0.15195272800175633,-0.1035416578745636
12/07/2024 19:33:34.538287,-6.1148581543,1.7072789251,-3.3367911156999996,0.19242255003237485,0.1154535300194249,-0.01114829059711378
12/07/2024 19:33:34.591147,-7.695317481599999,1.4309079148000001,-4.6983071751,0.23228150682479534,0.0675006088208807,0.07330382858376185
12/07/2024 19:33:34.643941,-9.634700198900001,1.6558332392,-5.665007505499999,0.19746218824750847,0.1310305935934743,0.08964447370555875
12/07/2024 19:33:34.696673,-10.584650771100002,1.6199409001999998,-6.324230131799999,0.0916297857297023,0.14645494085797417,0.009010262263420726
12/07/2024 19:33:34.749400,-10.7940227486,1.6905291669,-6.4474604957,-0.07254024703601432,0.1840231530071521,-0.19226983372282533
12/07/2024 19:33:34.803235,-10.8143617407,1.5577275125999999,-5.239085082699999,-0.16875152205220173,0.19394971312786988,-0.3078760800517997
12/07/2024 19:33:34.857047,-9.5677011661,1.2849457361999999,-4.1838503161,-0.1870774791981422,-0.3094032431472948,-0.25931229361505753
12/07/2024 19:33:34.910190,-8.303094422,0.7154539574000001,-3.6035908356,-0.20143281229579554,-0.7932085118001229,-0.17241671348138984
12/07/2024 19:33:34.963605,-7.4679993346,0.897308475,-2.9694928465999997,-0.22327124456137462,-0.3535382566071014,-0.09682214025438543
12/07/2024 19:33:35.017203,-6.8135623535,1.0253244841,-3.3882368016,-0.20418170586768664,0.10109819692177155,-0.020158552860534508
12/07/2024 19:33:35.070541,-7.2071816712,1.5062818266999998,-3.6478580537000003,-0.15653421728824143,-0.02183843226557905,0.07651087108430142
12/07/2024 19:33:35.123550,-8.6751783363,1.8628123941,-3.6969109170000003,-0.0757472895365539,0.04169155250701455,0.17837264955382048
12/07/2024 19:33:35.176949,-10.9603239193,2.4921247379,-3.158525832,0.013286318930806833,-0.3430008312481856,0.2599231588532555
12/07/2024 19:33:35.229940,-11.8229364666,2.9347969189,-2.9012974024999996,0.10537425358915764,-0.34880405101106676,0.3420845333908886
12/07/2024 19:33:35.282701,-11.7870441276,2.9611179675,-2.9084758702999998,0.19700403931885993,-0.40943242590221973,0.4024074756629426
12/07/2024 19:33:35.335451,-11.0213408956,2.8211378454,-2.0291135648000003,0.2470949888510972,-0.6855435135677228,0.40118574518654654
12/07/2024 19:33:35.388796,-9.148957211099999,2.9288148624,-2.2959132847,0.31566461183882444,-0.8633052978833451,0.3336851363656659
12/07/2024 19:33:35.442197,-7.9393853868,2.7122644171,-2.0398812665,0.33521229946116093,-0.219453336822637,0.22525655658551816
12/07/2024 19:33:35.495592,-5.7008998445,2.344966148,-2.8007988533,0.34009922136674503,0.3825543554215071,0.09330966513474685
12/07/2024 19:33:35.549272,-5.538187907699999,1.9453647738,-3.5545379723,0.33383785267521543,0.1153008137098754,-0.007483099167925688
12/07/2024 19:33:35.602783,-6.6233329568,2.021935097,-4.2867416879,0.2930625980254979,0.4700608007933728,-0.08720101275276669
12/07/2024 19:33:35.656084,-8.7876409985,2.1212372348999997,-4.465006971599999,0.22922718063380523,0.3619376536323241,-0.17760906800607296
12/07/2024 19:33:35.709482,-10.5224373835,1.91425808,-4.6851466508,0.15225816062085534,0.31581732814837393,-0.2744312082604584
12/07/2024 19:33:35.762892,-11.028519363400001,1.9920248145,-5.1266224204999995,0.06475171524898962,0.2064724505109292,-0.34544429220097767
12/07/2024 19:33:35.816277,-11.4604238427,1.3830514628000001,-3.6358939407,-0.06093380751025203,-0.2151772801552509,-0.4172209576892445
12/07/2024 19:33:35.869072,-10.4518491168,1.0935199281999999,-2.6464617955999996,-0.0638354173916926,-0.7217372789309551,-0.3619376536323241
12/07/2024 19:33:35.921997,-8.9886380969,0.9164510558,-2.7110680058,-0.07712173632249944,-0.6267477343911637,-0.321009682673057
12/07/2024 19:33:35.974781,-7.3447689707,0.8123632727,-2.5998017549,-0.12125674978230604,-0.5551237852124464,-0.28466320100027515
12/07/2024 19:33:36.028524,-7.0492553796,0.8315058535,-2.5423740125,-0.14538592669112765,-0.2029599753912906,-0.23273965575344385
12/07/2024 19:33:36.081669,-7.2933232848,0.9248259349,-3.062812928,-0.1033889415650141,-0.32513302303089364,-0.13805554383275148
12/07/2024 19:33:36.134454,-8.9096749511,1.328016543,-2.9336005076,-0.06475171524898962,0.05100724738953428,-0.08399397025222712
12/07/2024 19:33:36.187357,-10.6372928683,1.4201402131,-2.3808584870000002,-0.003665191429188092,-0.048411070127192715,-0.040317105721069016
12/07/2024 19:33:36.240297,-11.8767749751,1.5684952143000002,-2.4873390927,0.10033461537402402,-0.15027284859671178,0.02672535417116317
12/07/2024 19:33:36.293183,-12.0059873955,1.8675980393,-2.2492532439999997,0.1742493091959839,-0.035735616434583894,0.05467243881872237
12/07/2024 19:33:36.346110,-11.6793671106,1.806581063,-2.1260228801,0.22357667718047364,-0.038942658935123484,0.04856378643674222
12/07/2024 19:33:36.400120,-10.2951192365,1.8077774743,-2.3282163898,0.26465736444929017,-0.011911872144861299,0.02199114857512855
12/07/2024 19:33:36.452939,-8.8678005556,1.8209379986,-2.6033909887999998,0.3164281933865719,-0.5991060823627036,-0.012370021073509811
12/07/2024 19:33:36.505713,-7.8305119585,1.3651052933,-2.5016960283,0.2840523357620771,-0.22357667718047364,-0.07330382858376185
12/07/2024 19:33:36.558496,-6.5970119082,1.3100703735,-3.23031051,0.2545780880190229,0.2196060531321865,-0.11453723216212788
12/07/2024 19:33:36.611314,-6.6376898924,1.1904292435000001,-3.5736805531,0.21334468444065688,0.13530665026086042,-0.12614367168789017
12/07/2024 19:33:36.664121,-7.9310105077,1.0420742423,-4.3920258823,0.14645494085797417,0.6372851597500795,-0.12446379228284563
12/07/2024 19:33:36.716948,-9.3810610033,0.8207381518,-4.6002014485,0.05253441048502932,0.7234171583359996,-0.13133602621257331
12/07/2024 19:33:36.769759,-11.4915305365,0.3553341561,-4.7114676994,-0.013744467859455345,0.4324925886441949,-0.16355916752751862
12/07/2024 19:33:36.822578,-12.5611222387,0.0490528633,-4.7772703209000005,-0.12446379228284563,0.15790866407418697,-0.2316706415865973
12/07/2024 19:33:36.875343,-12.189038324399998,0.0035892339,-3.7005001509,-0.19868391872390448,0.09590584239708841,-0.26893342111667623
12/07/2024 19:33:36.928157,-10.1036934285,0.0275174599,-3.1716863562999995,-0.19700403931885993,-0.22159136515633004,-0.22831088277650824
12/07/2024 19:33:36.980911,-8.8019979341,-0.287138712,-3.1357940173,-0.22510384027596866,-0.5140430979436299,-0.139124557999598
12/07/2024 19:33:37.033791,-7.7395846997,-0.131605243,-2.8187450228000004,-0.21471913122660238,-0.2669481090925327,-0.06017022596250451
12/07/2024 19:33:37.086633,-6.9176501366,0.1304088317,-3.3595229304,-0.20693059943957767,-0.24419337896965665,0.01634064512179691
12/07/2024 19:33:37.139407,-7.0253271536,0.4725824635,-3.5581272062,-0.17791450062517197,-0.0003054326190990077,0.06490443155853913
12/07/2024 19:33:37.192186,-8.1631142999,0.7932206919,-3.7914274097,-0.18845192598408772,0.15546520312139492,0.06093380751025203
12/07/2024 19:33:37.245196,-10.1383893562,1.1653046062,-2.9934210726,-0.13423763609401387,-0.04108068726881653,0.08933904108645975
12/07/2024 19:33:37.298156,-11.413763801999998,1.2311072277,-3.0879375653000003,-0.07773260156069746,-0.18356500407850362,0.1435533309765336
12/07/2024 19:33:37.351011,-11.781062071100001,1.7204394494000002,-2.9240292172,-0.01832595714594046,-0.22556198920461717,0.2072360320586767
12/07/2024 19:33:37.404004,-11.6039931987,1.7192430381,-2.4454646972,0.05421428989007387,-0.27992899540424054,0.2267837196810132
12/07/2024 19:33:37.456827,-9.7244310464,1.9680965885,-2.3593230836,0.09773843811168245,0.10079276430267253,0.18157969205436006
12/07/2024 19:33:37.509669,-8.4083786164,1.7730815466,-2.2109680824,0.1831068551498551,-0.6566801310628665,0.15271630954950383
12/07/2024 19:33:37.562387,-6.9009003784,1.3974083984,-2.1583259852,0.18906279122228575,-0.07696902001294993,0.06765332513043021
12/07/2024 19:33:37.615039,-5.7930235146,1.1964113,-2.8522445392,0.17318029502913734,0.0757472895365539,-0.01557706357404939
12/07/2024 19:33:37.667753,-6.368497349899999,1.2335000503,-3.2291140987,0.1710422666954443,-0.238542875516325,-0.040622538340168025
12/07/2024 19:33:37.720546,-8.3294154706,1.3028919057000001,-3.9349967657,0.12553280644969214,0.06643159465403417,-0.04337143191205909
12/07/2024 19:33:37.774907,-10.384850084,1.1042876299,-4.001995798499999,0.004276056667386108,0.0198531202414355,-0.0755945732270044
12/07/2024 19:33:37.828266,-11.3946212212,0.9188438784,-4.0366917262,-0.12202033133005356,-0.09254608358699933,-0.13637566442770693
12/07/2024 19:33:37.881043,-12.035897678,0.6281159325,-4.1563328562,-0.29962939933612653,-0.14416419621473162,-0.24083362015956755
12/07/2024 19:33:37.933887,-12.2644122363,0.6819544409999999,-2.7553352239,-0.3908010361371803,-0.47112981496021933,-0.25686883266226546
12/07/2024 19:33:37.986664,-10.719845247999999,0.5156532703,-2.5579273594000003,-0.40790526280672473,-0.5213734808020061,-0.24052818754046854
12/07/2024 19:33:38.039423,-8.7445701917,0.4570291166,-2.3712871966,-0.47952921198544207,-0.33979378874764604,-0.2541199390903744
12/07/2024 19:33:38.092197,-7.5361947787,0.5395814963,-1.9848463467,-0.4908302188921053,0.14156801895239005,-0.23564126563488444
12/07/2024 19:33:38.145728,-6.7010996913000005,0.6137589969,-2.3282163898,-0.43142357447734836,0.16936238729039974,-0.14523321038157813
12/07/2024 19:33:38.198677,-7.861618652300001,0.8446663778000001,-2.6883361911000003,-0.33582316469935897,0.07406741013150937,-0.08246680715673206
12/07/2024 19:33:38.251518,-9.9170532657,1.3663017045999999,-2.500499617,-0.23945917337362202,0.10033461537402402,-0.06719517620178168
12/07/2024 19:33:38.304255,-11.9569345322,1.8161523534,-2.0410776778,-0.099723750135826,-0.09040805525330627,0.003665191429188092
12/07/2024 19:33:38.357086,-12.5228370771,2.0566310246999997,-1.1114660977,0.004581489286485115,0.1631010185988701,0.10002918275492502
12/07/2024 19:33:38.409953,-13.5589292629,1.9429719511999999,-1.5230315848999998,0.1718058482431918,-0.7406741013150936,0.19318613158012235
12/07/2024 19:33:38.462814,-10.7521483531,2.3736800192,-1.5326028753,0.18157969205436006,0.06597344572538566,0.2081523299159737
12/07/2024 19:33:38.515586,-8.8929251929,2.368894374,-1.890329854,0.20861047884462225,-0.5473352534254218,0.1950187272947164
12/07/2024 19:33:38.568328,-7.0971118315999995,1.9393827173,-1.4859428346,0.2072360320586767,-0.3901901708989823,0.1114829059711378
12/07/2024 19:33:38.621206,-6.3661045273,1.6438691261999998,-1.4775679554999999,0.18585574872174615,0.19135353586552828,0.08994990632465776
12/07/2024 19:33:38.674093,-6.6508504167,1.4691930764,-2.1080767106,0.219453336822637,-0.0007635815477475192,0.14187345157148906
12/07/2024 19:33:38.726989,-8.640482408599999,1.770688724,-2.9706892578999997,0.1953241599138154,0.32834006553143325,0.1707368340763453
12/07/2024 19:33:38.779765,-10.4913306897,1.6199409001999998,-3.1884361145,0.10277807632681608,0.5496259980686643,0.1475239550248207
12/07/2024 19:33:38.832630,-11.9270242497,1.7324035624,-3.3164521235999995,0.001832595714594046,0.5276348494935358,0.06979135346412325
12/07/2024 19:33:38.885531,-12.8267255473,1.8891334427000002,-2.8953153460000003,-0.04871650274629172,0.22464569134732013,-0.03527746750593539
12/07/2024 19:33:38.938291,-11.633903481199999,2.2839491717,-2.0733807828999997,-0.01832595714594046,0.46013424067265507,-0.09010262263420726
12/07/2024 19:33:38.991177,-9.0975115252,1.6259229567,-2.8414768375,0.020922134408282025,-0.17745635169652346,-0.10415252311276162
12/07/2024 19:33:39.043944,-7.2358955424,1.3854442854000002,-2.5232314317,-0.025961772623415653,-0.7454083069111282,-0.09040805525330627
12/07/2024 19:33:39.096816,-6.397211221099999,1.3495519463999999,-1.9609181207,-0.05115996369908379,-0.0957531260875389,-0.09178250203925181
12/07/2024 19:33:39.149588,-6.7226350947,1.4177473905,-2.1678972756,0.02199114857512855,0.058948495486108476,-0.0317649923862968
12/07/2024 19:33:39.202388,-7.8305119585,1.7850456596,-2.8163522002,0.08124507668033605,0.556803664617491,0.006719517620178169
12/07/2024 19:33:39.255284,-9.7040920543,2.117648001,-3.0209385325,0.14401147990518212,0.4514294110283333,0.03634648167278191
12/07/2024 19:33:39.308011,-11.4424776732,2.3365912689,-3.2578279699,0.2499965987325378,-0.027336219409361186,0.10231992739816757
12/07/2024 19:33:39.360924,-12.1758778001,2.8797619991,-3.7639099498,0.2919935838586513,0.20280725908174108,0.10201449477906856
12/07/2024 19:33:39.413674,-11.8396862248,2.5890340532,-3.3499516399999996,0.29947668302657704,-0.03436116964863836,0.08200865822808356
12/07/2024 19:33:39.466474,-10.662417505599999,1.962114532,-2.2456640101,0.29428432850189384,-0.4181372555465415,0.04856378643674222
12/07/2024 19:33:39.519205,-8.85344362,2.0973090089,-2.2552353005,0.3150537466006264,-0.6907358680924058,0.04230241774521256
12/07/2024 19:33:39.571957,-6.607779609900001,2.0673987264,-2.2325034857999997,0.26984971897397325,-0.08918632477691024,0.0013744467859455344
12/07/2024 19:33:39.624825,-5.9090754107,2.1487546948,-2.1846470338,0.23228150682479534,0.04657847441259867,-0.01557706357404939
12/07/2024 19:33:39.677620,-6.6341006585,1.4464612617,-2.9599215562,0.2229658119422756,-0.04046982203061852,0.03390302071998985
12/07/2024 19:33:39.730454,-8.6751783363,1.280160091,-3.9672998708,0.14523321038157813,-0.05360342465187585,0.06551529679673715
12/07/2024 19:33:39.783183,-10.804790450299999,1.4787643668000001,-4.2137605985999995,0.008857545953871221,-0.21349740075020637,0.13530665026086042
12/07/2024 19:33:39.835990,-11.7272235626,1.5290136414,-4.2675991071,-0.14095715371419204,0.11270463644753383,0.10980302656609325
12/07/2024 19:33:39.888815,-11.909078080199999,1.0731809361,-4.4051864066,-0.3226895620781016,0.2787072649278445,-0.012675453692608817
12/07/2024 19:33:39.941626,-11.471191544399998,1.3160524299999998,-3.6263226502999997,-0.4005748799483486,-0.049632800603588746,-0.039095375244672985
12/07/2024 19:33:39.994453,-9.4444708022,1.0121639598,-2.8701907087,-0.4242459079285217,-0.43707407793068,-0.01038470904936626
12/07/2024 19:33:40.047225,-8.6213398278,1.0241280728,-2.0422740890999997,-0.43371431912059094,-0.855974915024969,-0.04444044607890562
12/07/2024 19:33:40.100002,-7.0492553796,1.0145567824000001,-1.5637095691,-0.4531092904333779,-0.023212879051524585,-0.07910704834664298
12/07/2024 19:33:40.152832,-6.4701923104,1.0755737587,-2.4717857458,-0.4315762907868978,0.15699236621688992,-0.045662176555301644
12/07/2024 19:33:40.205761,-6.922435781799999,1.304088317,-2.9862426048,-0.39400807863771986,0.11713340942446944,-0.0035124751196385882
12/07/2024 19:33:40.258674,-8.6345003521,2.1116659445,-2.8163522002,-0.3645338308946657,0.22143864884678055,-0.010231992739816757
12/07/2024 19:33:40.311504,-11.302497551099998,2.4454646972,-1.6881363443,-0.26954428635487426,-0.42073343280888303,0.0632245521534946
12/07/2024 19:33:40.365087,-12.134003404600001,2.3174486881,-2.5974089322999996,-0.19853120241435498,-0.16447546538481564,0.12186761502050406
12/07/2024 19:33:40.417868,-12.096914654299999,1.8053846516999998,-3.0915267992,-0.2223549467040776,-0.10094548061222204,0.12064588454410802
12/07/2024 19:33:40.470579,-11.0141624278,2.4921247379,-1.9178473139,-0.3404046539858441,-0.06261368691529658,0.04108068726881653
12/07/2024 19:33:40.523255,-9.9577312499,2.9407789753999998,-1.5385849318,-0.39828413530510604,-0.44684792174184823,-0.036193765363232405
12/07/2024 19:33:40.576988,-8.1104722027,3.3403803495999997,-1.4057832774999999,-0.4016438941151951,-0.4161519435223979,-0.1235474944255486
12/07/2024 19:33:40.630161,-6.9332034835,2.7708885708000004,-1.4979069476,-0.39248091554222486,0.357356164345839,-0.2423607832550626
12/07/2024 19:33:40.682989,-6.496513359000001,2.3246271559,-1.866401628,-0.29046642076315626,0.013286318930806833,-0.23701571242082994
12/07/2024 19:33:40.735777,-8.6309111182,2.2396819536,-1.4931213024,-0.18982637277003328,-0.06948592084502425,-0.15409075633544936
12/07/2024 19:33:40.788574,-10.360921858,2.5028924396,-1.4763715442,-0.1711949830049938,0.16569719586121168,-0.08567384965727166
12/07/2024 19:33:40.842268,-11.5058874721,2.3306092124,-2.1822542112,-0.18524488348354815,-0.00015271630954950385,-0.036041049053682904
12/07/2024 19:33:40.895106,-12.3050902205,2.3892333661,-2.6979074815,-0.31459559767197787,0.0039706240482871,-0.07284567965511334
12/07/2024 19:33:40.947907,-11.4604238427,2.3617159062,-2.1667008643,-0.44501532602725413,-0.019394971312786988,-0.11377365061438036
12/07/2024 19:33:41.000793,-9.9577312499,1.4763715442,-2.4418754632999997,-0.5042692541324616,0.11270463644753383,-0.12293662918735059
12/07/2024 19:33:41.053587,-9.3009014462,1.2167502921,-1.6378870697,-0.5552765015219959,-0.2002110818193995,-0.11652254418627142
12/07/2024 19:33:41.106366,-8.1906317598,1.6019947307,-0.8961120637,-0.5375614096142535,-0.49938233222687756,-0.11209377120933582
12/07/2024 19:33:41.159206,-7.5924261098,2.1738793321000003,-1.0576275892,-0.48136180770003606,0.15821409669328595,-0.12186761502050406
12/07/2024 19:33:41.212075,-6.7429740868,2.4179472373,-1.5361921092,-0.3943135112568189,0.49617528972633795,-0.11866057251996448
12/07/2024 19:33:41.264886,-8.3114693011,1.7036896912000001,-3.8668013215999997,-0.26984971897397325,0.0957531260875389,-0.12034045192500901
12/07/2024 19:33:41.317661,-9.963713306399999,2.9336005076,-0.9511469834999999,-0.2151772801552509,-0.3947716601854674,-0.07238753072646481
12/07/2024 19:33:41.370537,-11.6578317072,2.9838497821999996,-0.3026920589,-0.058490346557459966,-0.07040221870232127,0.0035124751196385882
12/07/2024 19:33:41.423301,-12.716655707700001,2.8929225234,-0.09930213789999999,0.10995574287564276,-0.040011673101970006,0.05131268000863329
12/07/2024 19:33:41.476073,-12.326625623899998,2.5543381254999997,0.6544369810999999,0.22281309563272608,-0.3034473070748641,0.08002334620394001
12/07/2024 19:33:41.530076,-9.9122676205,2.3808584870000002,0.9056833541,0.33750304410440346,-0.23121249265794883,0.01756237559819294
12/07/2024 19:33:41.583037,-8.7972122889,2.3078773977,-1.1928220661,0.3805690433973635,-0.4045455039966357,-0.09850201965942997
12/07/2024 19:33:41.635903,-6.951149653,1.9393827173,-1.2502498085,0.2945897611209929,-0.4712825312697689,-0.22174408146587957
12/07/2024 19:33:41.688670,-6.4893348911999995,1.7814564256999998,-0.969093153,0.34574972482007665,0.14172073526193954,-0.25335635754262686
12/07/2024 19:33:41.741557,-7.1784678,1.2107682356,-1.4871392459,0.3947716601854674,0.14569135931022667,-0.21380283336930536
12/07/2024 19:33:41.794506,-9.2829552767,1.5445669883000002,-2.5866412306,0.319482519577562,0.006566801310628665,-0.17562375598192942
12/07/2024 19:33:41.847522,-11.0105731939,1.4967105363,-1.4895320685,0.13713924597545443,-0.21212295396426084,-0.14172073526193954
12/07/2024 19:33:41.900377,-11.9569345322,1.2741780345,-2.2456640101,-0.03252857393404432,0.3081815126708987,-0.1389718416900485
12/07/2024 19:33:41.953200,-12.3900354228,1.1162517428999998,-2.8594230069999997,-0.278859981237394,-0.3346014342229629,-0.15653421728824143
12/07/2024 19:33:42.006234,-12.3338040917,1.2071790017,-1.3770694063,-0.45097126209968486,-0.5476406860445208,-0.16478089800391463
12/07/2024 19:33:42.059044,-11.081161460599999,0.6197410534,-0.2285145583,-0.5707008487864957,-0.6035348553396391,-0.1354593665704099
12/07/2024 19:33:42.111874,-9.7423772159,1.2837493249,0.3302095188,-0.6081163446261243,-0.3497203488683638,-0.08078692775168753
12/07/2024 19:33:42.164616,-8.3330047045,1.1617153723,0.0765703232,-0.5728388771201889,0.16417003276571662,-0.005650503453331642
12/07/2024 19:33:42.217479,-7.3160550995,0.8590233134,-0.8913264185,-0.4453207586463532,0.3277292002932352,0.1823432736021076
12/07/2024 19:33:42.270420,-7.6498538522,0.7357929495000001,-1.6342978358,-0.3736968094676359,0.49556442448814,0.3022255765984681
12/07/2024 19:33:42.323189,-9.821340361699999,1.7539389658,-0.9152546444999999,-0.3152064629101759,-0.06017022596250451,0.45234570888563036
12/07/2024 19:33:42.376014,-11.8265257005,3.0939196218,-0.3780659708,-0.23762657765902798,0.0681114740590787,0.5473352534254218
12/07/2024 19:33:42.428959,-12.6006038116,3.9756747499,-0.6915257314000001,-0.21334468444065688,0.3538436892262004,0.5326744877086693
12/07/2024 19:33:42.481786,-13.064811396,4.7246282237,1.220339526,-0.08979719001510825,-0.005955936072430649,0.5526803242596544
12/07/2024 19:33:42.534569,-12.370892842,4.5367916496,1.4428720278,0.038484510006474966,-0.09407324668249435,0.5042692541324616
12/07/2024 19:33:42.587363,-9.8859465719,3.924229064,0.155533469,0.11575896263852391,0.03313943917224233,0.4106541563786158
12/07/2024 19:33:42.640131,-6.8602223942,3.8584264425,0.0669990328,0.2739730593318099,0.024434609527920613,0.36987890172889826
12/07/2024 19:33:42.692882,-5.873183071700001,3.505485109,0.5324030285,0.42394047530942264,0.48334711972417965,0.32162054791125505
12/07/2024 19:33:42.745654,-5.790630692000001,3.3762726886,-0.0669990328,0.6247624223670202,0.3937026460186209,0.2906191370727058
12/07/2024 19:33:42.799815,-7.130611348,3.7064822074,-0.9200402897,0.7944302422765189,0.8268060999010138,0.24495696051740415
12/07/2024 19:33:42.852977,-9.0795653557,4.4195433422,-2.1200408236,0.8643743120501917,0.7988590152534546,0.1996002165812015
12/07/2024 19:33:42.905856,-10.492527101,4.3812581806,-3.433700431,0.9382890058721516,0.6569855636819655,0.158824961931484
12/07/2024 19:33:42.958642,-10.5391871417,4.1359938641000005,-5.5657053676,0.9075930276527012,0.8060366818022812,0.10155634585042005
12/07/2024 19:33:43.011389,-10.731809361,3.4408788988000003,-5.2331030262,0.8177958376375931,0.1556179194309444,0.1518000116922068
12/07/2024 19:33:43.064124,-9.7698946758,2.0135602179,-4.8131626599,0.6969972367839355,-0.03375030441044035,0.2784018323087455
12/07/2024 19:33:43.116879,-8.1810604694,2.1116659445,-4.6911287073,0.49663343865498644,0.14676037347707319,0.33735032779485397
12/07/2024 19:33:43.169642,-5.826523031,3.0711878071,-3.4061829711000002,0.2898555555249583,0.4960225734167885,0.38820485887483874
12/07/2024 19:33:43.222449,-4.6337009649,3.4253255519,-3.5330025689,0.20280725908174108,0.5821545720027086,0.4256203547144672
12/07/2024 19:33:43.275208,-4.3345981399,3.7052857961,-4.1024943476999995,0.14477506145292962,0.1953241599138154,0.4028656245915911
12/07/2024 19:33:43.327838,-4.9926243549,4.4578285038,-4.4243289874,0.16035212502697901,0.14019357216644454,0.3249803067213442
12/07/2024 19:33:43.380378,-6.811169530899999,5.636293634299999,-5.0333023391000005,0.24770585408929524,0.003817907738737596,0.2677116906402802
12/07/2024 19:33:43.433163,-9.037690960199999,6.659225295800001,-5.2785666556,0.3498730651779133,-0.04444044607890562,0.1901318053891323
12/07/2024 19:33:43.485964,-9.894321451,6.3194444866,-5.124229597899999,0.5002986300841745,-0.002748893571891069,0.16569719586121168
12/07/2024 19:33:43.538781,-10.7629160548,6.1591253724,-4.2006000743,0.7217372789309551,-0.21395554967885486,0.20799961360642424
12/07/2024 19:33:43.591559,-9.7064848769,4.881358104,-4.5571306417,0.8349000643071375,-0.28130344219018605,0.23121249265794883
12/07/2024 19:33:43.644380,-6.927221427,3.3834511564,-4.208974953399999,0.8662069077647858,-0.23411410253938938,0.24159720170731505
12/07/2024 19:33:43.697216,-4.30708068,2.0231315083,-3.5306097463,0.9173668714638695,0.099418317516727,0.26511551337793865
12/07/2024 19:33:43.750071,-3.4707891813,2.069791549,-3.7902309983999998,0.9317222045615229,-0.06475171524898962,0.2692388537357753
12/07/2024 19:33:43.802986,-4.6025942711,2.3461625592999997,-5.2307102036,0.8964447370555875,-0.07544185691745489,0.20693059943957767
12/07/2024 19:33:43.855804,-6.2117674696,2.7445675222,-7.073183605600001,0.7736608241777865,0.08704829644321718,0.1235474944255486
12/07/2024 19:33:43.908892,-7.654639497399999,2.9886354273999998,-8.360522164399999,0.5995642312913521,0.1751656070532809,0.06001750965295501
12/07/2024 19:33:43.961894,-8.8438723296,3.1776684127999997,-9.229116768199999,0.38973202197033374,-0.14996741597761276,0.002596177262341565
12/07/2024 19:33:44.014670,-9.340383019099999,3.0412775246,-8.3581293418,0.21242838658335986,-0.09529497715889039,-0.03695734691097993
12/07/2024 19:33:44.067479,-9.178867493599999,3.0879375653000003,-7.495516794499999,0.1192714377581625,-0.05207626155638081,0.020158552860534508
12/07/2024 19:33:44.120300,-8.0339018795,2.9240292172,-6.3361942448,0.09315694882519734,-0.40759983018762574,0.10445795573186063
12/07/2024 19:33:44.173104,-6.1280186786,2.4610180441000002,-4.8538406441,0.13072516097437528,-0.4095851422117693,0.1113301896615883
12/07/2024 19:33:44.226021,-3.8931223702,1.8699908619,-4.2436708811,0.2316706415865973,0.35598171755989344,0.08048149513258852
12/07/2024 19:33:44.278980,-3.7878381758,1.5445669883000002,-4.7676990305,0.338877490890349,0.09865473596897947,0.037415495839628436
12/07/2024 19:33:44.331842,-4.7641097966,1.8053846516999998,-5.084748025,0.4483750848373433,0.1514945790731078,0.02275473012287607
12/07/2024 19:33:44.384623,-6.3912291645999995,1.8376877568,-6.3804614629,0.5326744877086693,0.03955352417332149,0.039095375244672985
12/07/2024 19:33:44.437593,-9.1477607998,2.3174486881,-6.9619173547,0.5829181535504562,-0.23243422313434486,0.1275181184738357
12/07/2024 19:33:44.490451,-10.447063471600002,2.5974089322999996,-7.5445696578,0.6023131248632431,0.06017022596250451,0.278554548618295
12/07/2024 19:33:44.543284,-10.137192944899999,2.7840490951,-7.612765101899999,0.6288857627248567,0.3075706474327007,0.42058071649933354
12/07/2024 19:33:44.596075,-9.1908316066,2.8893332895,-7.2323063085,0.6275113159389113,-0.11988230299636052,0.5032002399656151
12/07/2024 19:33:44.648893,-8.1320076061,1.998006871,-6.4654066652,0.5717698629533423,-0.45952337543445704,0.521984346040204
12/07/2024 19:33:44.701735,-5.371886737,1.603191142,-5.7332029496,0.5878050754560403,-0.2944370448114434,0.5285511473508328
12/07/2024 19:33:44.754509,-3.7088750299999997,0.9882357338,-5.6255259326000004,0.5276348494935358,0.3917173339944774,0.4815145240095856
12/07/2024 19:33:44.807404,-3.5078779316,0.8530412569000001,-6.388836342,0.4489859500755413,0.22449297503777066,0.4416555672171651
12/07/2024 19:33:44.860181,-4.151547211,0.7740781111,-7.477570625,0.34804046946331924,0.28359418683342863,0.40256019197249215
12/07/2024 19:33:44.913037,-5.2905307686,1.2921242039999998,-8.3904324469,0.22739458491921122,0.1867720465790432,0.33948835612854705
12/07/2024 19:33:44.965992,-7.2478596554,1.6941184008,-8.916853418899999,0.11407908323347936,-0.40989057483086827,0.24220806694551308
12/07/2024 19:33:45.018804,-8.5112699882,1.7659030788,-9.1740818484,-0.014813482026301871,-0.44929138269464025,0.1559233520500434
12/07/2024 19:33:45.071684,-9.4325066892,2.3700907853,-8.6105721261,-0.06337726846304409,-0.5320636224704713,0.15653421728824143
12/07/2024 19:33:45.124498,-9.1513500337,2.2217357841,-7.6079794567,-0.12385292704464762,-0.3660609939901607,0.17211128086229083
12/07/2024 19:33:45.177400,-6.7525453772,1.4703894876999999,-6.232106461699999,-0.18478673455489963,-0.05818491393836096,0.1545489052640979
12/07/2024 19:33:45.230222,-5.344369277099999,1.0073783146,-5.3671010918,-0.14278974942878608,-0.11575896263852391,0.1395827069282465
12/07/2024 19:33:45.283220,-4.5714875773,1.0815558152,-4.989035121000001,-0.08567384965727166,0.4744895737703084,0.10674870037510319
12/07/2024 19:33:45.336104,-4.8071806034,0.9200402897,-5.4855458105,-0.026878070480712675,0.22556198920461717,0.0836885376331281
12/07/2024 19:33:45.388886,-5.9126646445999995,1.3746765837,-6.2919270267,0.09101892049150428,0.5151121121104765,0.10766499823240021
12/07/2024 19:33:45.441791,-7.2610201797,2.1284157027,-7.363911551499999,0.21487184753615188,0.3820962064928586,0.17654005383922644
12/07/2024 19:33:45.494600,-8.4813597057,3.3367911156999996,-8.0195449439,0.28802295981036424,0.356134433869443,0.25854871206731
12/07/2024 19:33:45.547437,-8.254041558700001,3.9062828945,-9.1561356789,0.34452799434368064,0.29290988171594834,0.42943826245320477
12/07/2024 19:33:45.600255,-7.3663043741,3.9433716447999996,-8.219345631,0.3619376536323241,-0.09987646644537551,0.5209153318733576
12/07/2024 19:33:45.653042,-6.173482308,3.8727833781,-7.3399833255,0.3552181360121459,-0.5280929984221843,0.5317581898513724
12/07/2024 19:33:45.706001,-5.5896335936,3.2853454298,-6.125625856,0.36957346910979927,-0.6606507551111536,0.5331326366373179
12/07/2024 19:33:45.758812,-4.2484565263,2.7361926431000003,-6.1184473882,0.33719761148530447,0.14798210395346922,0.5134322327054319
12/07/2024 19:33:45.811595,-3.1429724850999996,1.7730815466,-6.293123438,0.2750420734986564,-0.0641408500107916,0.47235154543661534
12/07/2024 19:33:45.864502,-3.5330025689,1.8137595308,-6.6699929975,0.2299907621815528,-0.22968532956245377,0.3886630078034873
12/07/2024 19:33:45.917398,-4.3956151162,2.1930219129,-7.2311098972,0.1760819049105779,0.010842857978014772,0.3294090796982798
12/07/2024 19:33:45.970207,-5.3204410510999995,2.7804598612,-8.3557365192,0.11591167894807342,0.36713000815700725,0.2073887483682262
12/07/2024 19:33:46.023078,-6.4570317861,3.1884361145,-8.4693955927,0.05482515512827187,0.06566801310628666,0.1195768703772615
12/07/2024 19:33:46.075874,-6.550351867499999,3.3284162366,-9.1680997919,0.025350907385217634,0.28878654135811177,0.04550946024575214
12/07/2024 19:33:46.128700,-6.6125652551,3.5353953915,-9.0125663229,-0.03313943917224233,-0.40653081602077923,0.029626964052603743
12/07/2024 19:33:46.181740,-7.9525459111,4.1072799929,-6.8709900959,-0.056505034533316414,-1.2551753481873722,0.036193765363232405
12/07/2024 19:33:46.234570,-6.1351971464,3.2721849055,-5.970092387,-0.03955352417332149,-0.08674286382411818,0.04321871560250958
12/07/2024 19:33:46.287473,-5.3168518172,3.170489945,-5.4807601652999995,0.00198531202414355,-0.279470846475592,0.08552113334772216
12/07/2024 19:33:46.340306,-5.1062834284,2.8175486115,-4.6277189084,0.11591167894807342,-0.4019493267342941,0.18967365646048376
12/07/2024 19:33:46.393254,-5.6542398038,2.9048866364,-4.7569313288,0.2909245696918048,-0.42256602852347713,0.37140606482439337
12/07/2024 19:33:46.445995,-6.3601224708,3.0843483314,-5.0668018555,0.4621195526967986,-0.41783182292744253,0.49128836782075386
12/07/2024 19:33:46.506641,-6.9535424756,3.6059836581999996,-6.0849478718,0.6766859676138516,-0.20540343634408267,0.5861251960509958
12/07/2024 19:33:46.559436,-6.3936219871999995,3.8333018051999996,-7.9178499834,0.739605087148247,0.06643159465403417,0.5769622174780255
12/07/2024 19:33:46.612165,-8.3665042209,4.9483571368,-7.1880390904,0.715017761310777,-1.1965322853203626,0.5254968211598428
12/07/2024 19:33:46.665787,-7.6713892556,4.295116567,-6.7202422721,0.7383833566718511,-0.5659666431904612,0.5056437009184073
12/07/2024 19:33:46.720845,-6.7226350947,4.1946180178,-7.0516482022,0.7031058891659157,-0.45952337543445704,0.5012149279414716
12/07/2024 19:33:46.773891,-6.0526447667,3.6059836581999996,-6.6532432393,0.6249151386765697,-0.40698896494942777,0.49098293520165487
12/07/2024 19:33:46.826630,-5.5884371823,3.1369904286000003,-6.326622954399999,0.5366451117569565,-0.1466076571675237,0.49510627555949144
12/07/2024 19:33:46.879403,-5.5310094399,3.0137600647,-6.2356956956000005,0.475864020556254,-0.20128009598624608,0.49510627555949144
12/07/2024 19:33:46.932185,-5.9150574672000005,3.0843483314,-6.7178494495,0.3898847382798833,-0.09819658704033096,0.43814309209752655
12/07/2024 19:33:46.988096,-6.8374905795,3.4671999473999997,-6.8087767083,0.3081815126708987,-0.24984388242298827,0.40103302887699704
12/07/2024 19:33:47.040932,-7.489534738000001,3.4995030524999997,-6.314658841399999,0.2803871443328891,-0.4430300140031106,0.39828413530510604
12/07/2024 19:33:47.093744,-6.8183479987,2.9395825641,-5.8301122648999995,0.28588493147667116,-0.024129176908821607,0.36865717125250225
12/07/2024 19:33:47.146514,-6.2105710583,2.4346969955,-6.1028940413,0.2829833215952306,0.15210544431130582,0.33261612219881936
12/07/2024 19:33:47.199344,-6.7274207398999994,2.1954147355,-6.3744794064,0.2825251726665821,-0.28099800957108706,0.3048217538608097
12/07/2024 19:33:47.252257,-8.3832539791,2.5328027221,-5.9485569836,0.3208569663635075,-0.9140071126537804,0.33383785267521543
12/07/2024 19:33:47.305220,-8.3042908333,2.3653051401,-5.3910293178,0.3692680364907003,-0.5513058774737088,0.3874412773270912
12/07/2024 19:33:47.358056,-7.361518728899999,1.9776678789,-5.6542398038,0.4231768937616751,-0.17684548645832546,0.43065999292960083
12/07/2024 19:33:47.410808,-7.4045895357,2.0602202586000002,-5.983252911299999,0.4517348436474323,-0.03329215548179183,0.44409902816995717
12/07/2024 19:33:47.464075,-8.3210405915,2.4861426814,-6.1842500096999995,0.47510043900850646,-0.48258353817643207,0.5131268000863328
12/07/2024 19:33:47.516860,-7.5888368759,2.4382862294,-5.7415778287,0.5032002399656151,-0.4021020430438436,0.5448917924726296
12/07/2024 19:33:47.569749,-6.4737815442999995,2.3856441322,-6.2536418651,0.4460843401941007,0.0319177086958463,0.497397020202734
12/07/2024 19:33:47.622609,-6.1423756142,2.7637101029999998,-6.7046889252,0.34009922136674503,-0.16355916752751862,0.3984368516146555
12/07/2024 19:33:47.675470,-6.5359949319,2.8534409504999996,-6.4977097703,0.22403482610912212,-0.2098322093210183,0.2562579674240674
12/07/2024 19:33:47.728306,-6.771687958,2.8259234905999997,-6.604190375999999,0.13041972835527627,-0.08078692775168753,0.16355916752751862
12/07/2024 19:33:47.781128,-6.770491546700001,2.8055844984999996,-6.6341006585,0.02748893571891069,0.03283400655314333,0.09422596299204386
12/07/2024 19:33:47.833968,-6.7214386834,2.8773691765,-6.7345992077,-0.049174651674940235,-0.06017022596250451,0.05283984310412832
12/07/2024 19:33:47.886769,-6.6053867873000005,2.99102825,-6.4295143262,-0.12522737383059315,0.031001410838549282,0.028252517266658207
12/07/2024 19:33:47.939671,-6.2045890018000005,3.1692935337,-6.5060846494,-0.1831068551498551,0.11377365061438036,-0.01710422666954443
12/07/2024 19:33:47.992452,-6.2799629137,3.2877382523999996,-6.2141602922,-0.20357084062948863,-0.0555887366760194,-0.06261368691529658
12/07/2024 19:33:48.045290,-6.8614188055,3.5868410774,-5.994020613,-0.19226983372282533,-0.08888089215781124,-0.10125091323132103
12/07/2024 19:33:48.098078,-6.9176501366,3.6897324492,-6.113661743,-0.17226399717184032,0.07605272215565291,-0.12996157942662775
12/07/2024 19:33:48.150946,-6.5718872709,3.6765719249,-6.3062839623,-0.15134186276355832,0.10797043085149921,-0.16539176324211266
12/07/2024 19:33:48.203742,-6.6831535217999996,3.6251262389999996,-6.317051664,-0.139735423237796,0.08078692775168753,-0.17379116026733535
12/07/2024 19:33:48.257063,-6.893721910599999,3.5892339,-6.1962141227,-0.11911872144861299,0.058948495486108476,-0.1275181184738357
12/07/2024 19:33:48.309999,-6.771687958,3.4863425282,-6.2261244052,-0.10384709049366261,0.09529497715889039,-0.07086036763096977
12/07/2024 19:33:48.362904,-6.5898334404,3.5282169237,-6.149554082000001,-0.0911716368010538,-0.00015271630954950385,-0.039095375244672985
12/07/2024 19:33:48.415660,-6.686742755699999,3.7351960786,-6.0490555328,-0.07208209810736581,-0.05009094953223726,-0.019394971312786988
12/07/2024 19:33:48.468472,-6.607779609900001,3.8608192651000004,-5.9736816209,-0.05115996369908379,-0.04321871560250958,-0.002748893571891069
12/07/2024 19:33:48.521284,-6.2715880346,3.7974094662,-5.8767723056,-0.03512475119638588,-0.07315111227421234,-0.01634064512179691
12/07/2024 19:33:48.574062,-6.1531433159,3.8512479747,-5.9210395237,-0.012828170002158322,-0.0035124751196385882,-0.06429356632034111
12/07/2024 19:33:48.626942,-6.3505511804,3.9373895883000003,-6.0083775485999995,0.0007635815477475192,-0.038789942625573975,-0.10186177846951905
12/07/2024 19:33:48.679755,-6.6532432393,3.9278182979,-6.293123438,-0.0039706240482871,0.1359175154990584,-0.14508049407202864
12/07/2024 19:33:48.733068,-6.301498317099999,3.8464623295,-6.687939167000001,-0.0079412480965742,0.23289237206299335,-0.1475239550248207
12/07/2024 19:33:48.785947,-6.642475537599999,3.7782668854000003,-6.5407805771,-0.024129176908821607,0.037110063220529434,-0.14950926704896425
12/07/2024 19:33:48.838803,-6.632904247199999,3.4588250683,-6.1447684368,-0.019089538693687978,0.00198531202414355,-0.11911872144861299
12/07/2024 19:33:48.891630,-6.7046889252,3.2327033326,-6.2632131555,-0.006566801310628665,-0.0012217304763960308,-0.062002821677098564
12/07/2024 19:33:48.944493,-6.6939212235,3.1561330094,-6.3254265431,0.00198531202414355,-0.16630806109940968,-0.020616701789183015
12/07/2024 19:33:48.997321,-6.5575303353,3.0448667585,-6.4713887217,-0.000916297857297023,-0.06093380751025203,-0.020922134408282025
12/07/2024 19:33:49.050110,-6.4498533183,2.9252256285000002,-6.6245293681,-0.02153299964648004,0.005039638215133627,-0.059253928105207486
12/07/2024 19:33:49.102913,-6.5742800935,2.9156543381000004,-6.4737815442999995,-0.048258353817643214,0.03023782929080176,-0.11285735275708332
12/07/2024 19:33:49.155736,-6.5706908596,2.8689942974,-6.452246140900001,-0.05604688560466791,0.025656340004316644,-0.15241087693040484
12/07/2024 19:33:49.209282,-6.7968125953,2.9551359109999997,-6.232106461699999,-0.061086523819801536,-0.00916297857297023,-0.1624901533606721
12/07/2024 19:33:49.262088,-6.7118673929999995,3.0460631697999996,-6.1866428323,-0.05268712679457882,0.010842857978014772,-0.15134186276355832
12/07/2024 19:33:49.314867,-6.7082781591,3.014956476,-6.2380885182,-0.049480084294039245,-0.001069014166846527,-0.14080443740464255
12/07/2024 19:33:49.367704,-6.735795619,3.0472595810999996,-6.232106461699999,-0.04657847441259867,0.047952921198544204,-0.12492194121149414
12/07/2024 19:33:49.420436,-6.7489561433,3.146561719,-6.3098731962,-0.05131268000863329,-0.014966198335851376,-0.09758572180213294
12/07/2024 19:33:49.473323,-6.7345992077,3.278166962,-6.2632131555,-0.05497787143782138,-0.07086036763096977,-0.08597928227637065
12/07/2024 19:33:49.526125,-6.7441704981,3.2985059541,-6.2632131555,-0.052228977865930316,-0.0358883327441334,-0.09056077156285577
12/07/2024 19:33:49.578997,-6.8255264665,3.2051858726999995,-6.2392849295,-0.04428772976935611,-0.05238169417547982,-0.10048733168357353
12/07/2024 19:33:49.631760,-7.0025953389,3.0436703472,-6.132804323799999,-0.023212879051524585,-0.0398589567924205,-0.08536841703817265
12/07/2024 19:33:49.691178,-6.9260250157000005,3.0221349438,-6.2464633973,-0.004581489286485115,-0.016187928812247405,-0.0716239491787173
12/07/2024 19:33:49.744078,-6.9284178383,3.0951160330999996,-6.2943198493,0.009621127501618741,0.021227567027381034,-0.059864793343405505
12/07/2024 19:33:49.796847,-6.8566331603,3.0915267992,-6.324230131799999,0.01634064512179691,0.017715091907742442,-0.047494772269895694
12/07/2024 19:33:49.850484,-6.6628145297,3.0029923629999997,-6.3996040437,0.019089538693687978,0.06856962298772722,-0.04337143191205909
12/07/2024 19:33:49.903673,-6.6508504167,3.0161528873,-6.2955162605999995,0.020158552860534508,-0.0006108652381980154,-0.037262779530078935
12/07/2024 19:33:49.956477,-6.5874406178,2.9826533709,-6.3361942448,0.016646077740895916,-0.04077525464971753,-0.029321531433504737
12/07/2024 19:33:50.009304,-6.6951176348,3.1537401868,-6.4271215036000005,0.003817907738737596,0.0,-0.038179077387375956
12/07/2024 19:33:50.062164,-6.7381884416,3.2195428083000004,-6.4031932776,-0.014813482026301871,0.002901609881440573,-0.056810467152415424
12/07/2024 19:33:50.115097,-6.7848484823,3.1980074049,-6.3828542855,-0.026878070480712675,-0.00916297857297023,-0.06337726846304409
12/07/2024 19:33:50.167886,-6.508477471999999,3.0687949845,-6.3996040437,-0.036193765363232405,-0.005803219762881146,-0.05528330405692039
12/07/2024 19:33:50.220639,-6.6185473116,3.1549365981,-6.3302121883,-0.047952921198544204,-0.05742133239061344,-0.05589416929511841
12/07/2024 19:33:50.273644,-6.6628145297,3.2410782117,-6.2715880346,-0.052228977865930316,-0.061086523819801536,-0.049785516913138254
12/07/2024 19:33:50.326462,-6.7752771919,3.3475588174,-6.270391623299999,-0.048411070127192715,-0.013591751549905842,-0.056810467152415424
12/07/2024 19:33:50.379537,-6.6795642879,3.3487552287,-6.327819365700001,-0.047189339650796684,-0.014202616788103856,-0.06566801310628666
12/07/2024 19:33:50.432343,-6.6795642879,3.3176485349,-6.269195212,-0.04657847441259867,-0.020463985479633514,-0.08032877882303902
12/07/2024 19:33:50.485325,-6.6376898924,3.2518459134,-6.218945937399999,-0.049785516913138254,-0.03466660226773737,-0.08246680715673206
12/07/2024 19:33:50.538177,-6.703492513900001,3.3044880106,-6.1926248888,-0.04184426881656405,-0.04581489286485115,-0.0876591616814152
12/07/2024 19:33:50.591086,-6.7585274337,3.3427731722,-6.2679988007,-0.03344487179134134,-0.0317649923862968,-0.08491026810952414
12/07/2024 19:33:50.643910,-6.951149653,3.3332018818,-6.228517227799999,-0.03329215548179183,-0.06933320453547474,-0.0641408500107916
12/07/2024 19:33:50.696796,-6.903293200999999,3.4049865597999998,-6.2201423487000005,-0.03436116964863836,-0.045662176555301644,-0.030848694528999777
12/07/2024 19:33:50.749742,-6.851847515099999,3.4277183745,-6.1387863803,-0.02550362369476714,-0.024587325837470118,0.013286318930806833
12/07/2024 19:33:50.802527,-6.7489561433,3.4205399067,-6.177071541899999,-0.011606439525762293,-0.008093964406123703,0.028405233576207712
12/07/2024 19:33:50.855337,-6.5862442065,3.397808092,-6.2009997679,-0.002596177262341565,0.04444044607890562,0.008857545953871221
12/07/2024 19:33:50.908155,-6.4654066652,3.4803604716999996,-6.1052868639,0.001069014166846527,0.0320704250053958,-0.014202616788103856
12/07/2024 19:33:50.960922,-6.3900327533,3.4540394231000002,-6.0753765814,0.01313360262125733,-0.017256942979093935,-0.03390302071998985
12/07/2024 19:33:51.013828,-6.2763736798,3.3667013982,-6.1316079125,0.02748893571891069,-0.05238169417547982,-0.05726861608106394
12/07/2024 19:33:51.066670,-6.6089760212,3.3415767608999998,-6.1962141227,0.037415495839628436,-0.1154535300194249,-0.06597344572538566
12/07/2024 19:33:51.119477,-6.8255264665,3.326023414,-6.3457655352,0.04291328298341058,-0.11362093430483085,-0.048869219055841226
12/07/2024 19:33:51.172287,-6.7381884416,3.2685956716,-6.4175502132,0.049938233222687756,-0.03558290012503439,-0.028405233576207712
12/07/2024 19:33:51.225168,-6.7369920303,3.3391839383,-6.480960012100001,0.037110063220529434,-0.06093380751025203,-0.017715091907742442
12/07/2024 19:33:51.278087,-6.6723858201,3.3332018818,-6.4331035601,0.0198531202414355,0.015271630954950384,-0.003665191429188092
12/07/2024 19:33:51.331049,-6.4175502132,3.1848468806000003,-6.364908116,0.0033597588100890844,-0.000916297857297023,-0.013591751549905842
12/07/2024 19:33:51.384004,-6.3589260595,3.1094729686999996,-6.3708901725,-0.018478673455489966,-0.009621127501618741,-0.0438295808407076
12/07/2024 19:33:51.436886,-6.452246140900001,3.038884702,-6.4773707782,-0.04245513405476207,-0.05009094953223726,-0.08307767239493008
12/07/2024 19:33:51.489743,-6.568298037,2.9539394997,-6.5479590449,-0.07055493501187078,0.006261368691529657,-0.1314887425221228
12/07/2024 19:33:51.542552,-6.652046828,2.8534409504999996,-6.6269221907,-0.10247264370771707,-0.02901609881440573,-0.17226399717184032
12/07/2024 19:33:51.596105,-6.9044896123,2.6691936103000002,-6.628118602,-0.12660182061653869,0.005039638215133627,-0.18600846503129567
12/07/2024 19:33:51.648958,-7.1760749774,2.6835505459,-6.559923157899999,-0.15378532371635034,0.03665191429188092,-0.1747074581246324
12/07/2024 19:33:51.701686,-7.0923261864,2.6632115538,-6.5659052144,-0.1632537349084196,0.08170322560898456,-0.13652838073725643
12/07/2024 19:33:51.765017,-6.865008039399999,2.5830519966999996,-6.7070817478,-0.1798998126493155,0.14019357216644454,-0.11560624632897441
12/07/2024 19:33:51.818009,-6.6233329568,2.6536402634000003,-6.9547388869,-0.1980730534857065,0.11728612573401895,-0.09422596299204386
12/07/2024 19:33:51.870851,-6.7298135625,2.8450660714,-6.853043926400001,-0.2189951878939885,0.07742716894159844,-0.09071348787240527
12/07/2024 19:33:51.923604,-6.5982083195,2.9503502657999996,-6.8159551761,-0.2423607832550626,0.23747386134947845,-0.14217888419058808
12/07/2024 19:33:51.976426,-6.628118602,3.206382284,-6.466603076499999,-0.2666426764734337,0.1960877414615629,-0.1747074581246324
12/07/2024 19:33:52.029339,-6.4534425522,3.4875389395,-6.3302121883,-0.2748893571891069,0.13301590561761784,-0.1708895503858948
12/07/2024 19:33:52.082160,-6.2536418651,3.5030922864000003,-6.2404813408,-0.2849686336193742,0.0320704250053958,-0.18906279122228575
12/07/2024 19:33:52.134984,-6.092126339599999,3.649054465,-6.2476598086,-0.2808452932615375,0.14874568550121675,-0.2105957908687658
12/07/2024 19:33:52.187802,-6.3792650516,3.7962130549,-6.1698930741,-0.2669481090925327,0.06261368691529658,-0.22403482610912212
12/07/2024 19:33:52.240780,-6.5970119082,4.0259240245,-6.2009997679,-0.25335635754262686,0.061697389057999555,-0.22495112396641914
12/07/2024 19:33:52.293855,-6.4989061816,3.9445680561,-6.2476598086,-0.24984388242298827,0.049785516913138254,-0.23243422313434486
12/07/2024 19:33:52.346682,-6.1244294447000005,3.9541393465,-6.2081782357,-0.23808472658767646,0.17333301133868687,-0.24434609527920614
12/07/2024 19:33:52.399460,-5.7846486355,3.9936209194,-6.425925092299999,-0.22770001753831023,0.15134186276355832,-0.24846943563704274
12/07/2024 19:33:52.452949,-5.9653067418,4.175475436999999,-6.4474604957,-0.21319196813110736,0.12996157942662775,-0.2554943858763199
12/07/2024 19:33:52.505912,-5.874379483,4.1659041466,-6.6508504167,-0.19303341527057286,0.08216137453763306,-0.2739730593318099
12/07/2024 19:33:52.558719,-5.7367921835,3.9098721283999995,-6.550351867499999,-0.17043140145724628,0.13683381335635544,-0.2796235627851415
12/07/2024 19:33:52.611524,-5.6482577473,3.7842489418999996,-6.8075802969999994,-0.15653421728824143,0.18020524526841453,-0.29611692421648794
12/07/2024 19:33:52.664326,-5.5357950851,3.6095728921,-6.8542403377,-0.14416419621473162,0.20937406039236975,-0.29947668302657704
12/07/2024 19:33:52.717213,-5.5561340772,3.2171499857,-6.9308106609,-0.12171489871095456,0.12156218240140505,-0.3103195410045918
12/07/2024 19:33:52.770028,-5.777470167700001,3.1393832512,-6.851847515099999,-0.09697485656393494,0.0478002048889947,-0.2863430804053197
12/07/2024 19:33:52.822994,-5.8301122648999995,2.9599215562,-6.9379891287,-0.08048149513258852,0.10827586347059823,-0.2715295983790178
12/07/2024 19:33:52.875866,-6.0107703712000005,3.1393832512,-7.0037917501999996,-0.05360342465187585,0.219147904203538,-0.2431243648028101
12/07/2024 19:33:52.928688,-5.7846486355,3.0580272828,-7.118647235,-0.01756237559819294,0.3932444970899724,-0.24694227254154769
12/07/2024 19:33:52.981547,-5.633900811699999,3.0580272828,-7.2227350181,0.012064588454410803,0.277332818141899,-0.24740042147019622
12/07/2024 19:33:53.034195,-5.766702466,3.2075786953,-7.7012995381,0.03390302071998985,0.4172209576892445,-0.2703078679026218
12/07/2024 19:33:53.087417,-5.984449322600001,3.2638100264,-8.2887374864,0.036499197982331415,0.2932153143350474,-0.30192014397936906
12/07/2024 19:33:53.140246,-7.0097738067,3.9517465239000003,-8.063812162,0.007788531787024695,-0.3772092845872745,-0.3294090796982798
12/07/2024 19:33:53.193374,-6.9415783626,3.8512479747,-7.0911297751,-0.029168815123955232,0.05299255941367783,-0.32436944148314617
12/07/2024 19:33:53.246273,-5.9629139192,2.7936203855,-7.294519696099999,-0.10399980680321212,0.42668936888131376,-0.33414328529431436
12/07/2024 19:33:53.299189,-6.5826549726,2.8666014748,-6.6317078358999995,-0.19792033717615698,-0.058490346557459966,-0.3164281933865719
12/07/2024 19:33:53.352167,-6.8685972733,2.9934210726,-6.289534204100001,-0.22159136515633004,-0.05497787143782138,-0.2677116906402802
12/07/2024 19:33:53.404925,-6.095715573500001,2.6321048599999997,-6.260820332899999,-0.19471329467561738,0.3402519376762946,-0.20662516682047868
12/07/2024 19:33:53.457752,-5.467599641,2.3018953412000003,-6.6317078358999995,-0.16997325252859777,0.14492777776247914,-0.16584991217076114
12/07/2024 19:33:53.511207,-5.5932228275,2.3330020350000003,-6.671189408799999,-0.14508049407202864,-0.12568552275924166,-0.13332133823671685
12/07/2024 19:33:53.564000,-5.4927242783,2.1631116304,-6.960720943399999,-0.0956004097779894,-0.01710422666954443,-0.099418317516727
12/07/2024 19:33:53.616865,-5.6506505699,2.1762721547,-7.1461646949,-0.06948592084502425,0.04245513405476207,-0.09239336727744982
12/07/2024 19:33:53.669722,-5.8013983936999995,2.3473589706,-7.4392854634,-0.02138028333693054,0.14019357216644454,-0.07101308394051928
12/07/2024 19:33:53.722502,-6.5192451737,2.9216363945999997,-7.6737820782,0.0319177086958463,-0.027947084647559205,-0.04123340357836603
12/07/2024 19:33:53.775306,-6.4785671895,3.4552358344000003,-7.8999038139,0.07849618310844496,0.10842857978014774,-0.0158824961931484
12/07/2024 19:33:53.828185,-6.376872229,3.8057843452999998,-7.980063371,0.10567968620825664,-0.0320704250053958,0.019547687622336492
12/07/2024 19:33:53.881038,-6.385247108100001,4.0881374121,-8.123632727,0.11484266478122689,-0.28451048469072565,0.03359758810089084
12/07/2024 19:33:53.933903,-6.7513489659,4.3645084224,-6.671189408799999,0.10949759394699425,-0.4187481207847395,0.024740042147019622
12/07/2024 19:33:53.986859,-6.1555361385,3.9768711611999996,-6.3493547691,0.12660182061653869,0.13209960776032081,0.03497203488683638
12/07/2024 19:33:54.039665,-5.4939206895999995,3.4815568829999997,-6.3948183985,0.13240504037941983,0.0641408500107916,0.08567384965727166
12/07/2024 19:33:54.092480,-4.7318066915,3.0592236941,-6.4785671895,0.12476922490194463,0.07910704834664298,0.08491026810952414
12/07/2024 19:33:54.145468,-4.4087756405,2.7230321187999995,-6.7489561433,0.08521570072862314,0.14981469966806327,0.045662176555301644
12/07/2024 19:33:54.198274,-4.4123648744,2.6967110702,-7.130611348,0.04352414822160859,-0.044898595007554123,0.020005836550985003
12/07/2024 19:33:54.251170,-4.7712882644,2.7170500623000002,-7.2969125187,0.008246680715673207,-0.15241087693040484,0.0006108652381980154
12/07/2024 19:33:54.303916,-5.0644090329,2.8295127245,-7.3256263899,-0.006108652381980153,-0.021685715956029545,-0.011453723216212788
12/07/2024 19:33:54.356893,-4.8873401605,2.7218357075,-7.968099258,-0.012828170002158322,0.37568212149177943,-0.048869219055841226
12/07/2024 19:33:54.409812,-5.3551369788,2.8749763539,-8.4119678503,-0.059406644414756994,0.28573221516712166,-0.1475239550248207
12/07/2024 19:33:54.462640,-5.7930235146,2.9288148624,-8.3401831723,-0.08674286382411818,0.28435776838117616,-0.21609357801254792
12/07/2024 19:33:54.515704,-5.8528440796,3.194418171,-8.6895352719,-0.13637566442770693,0.2948951937400919,-0.3142901650528789
12/07/2024 19:33:54.568553,-6.089733517,3.3846475676999996,-8.3353975271,-0.1711949830049938,0.1310305935934743,-0.3891211567321358
12/07/2024 19:33:54.621458,-6.1866428323,3.1800612354,-8.063812162,-0.21349740075020637,-0.06475171524898962,-0.4645630136495907
12/07/2024 19:33:54.674317,-6.4893348911999995,3.1657042998000002,-6.9367927174,-0.27320947778406235,-0.39629882328096244,-0.4845688502005757
12/07/2024 19:33:54.727173,-5.8097732728,2.9994031291,-6.299105494500001,-0.2938261795732454,0.0954476934684399,-0.48441613389102617
12/07/2024 19:33:54.780216,-5.1780681064,2.6763720781,-6.324230131799999,-0.3023782929080176,0.29275716540639884,-0.43203443971554634
12/07/2024 19:33:54.833314,-5.288137946,2.5902304645,-6.6987068686999995,-0.2952006263591909,-0.0439822971502571,-0.318566221720265
12/07/2024 19:33:54.886144,-5.5860443597,2.7720849821,-6.410371745399999,-0.26374106659199315,-0.258854144686409,-0.2002110818193995
12/07/2024 19:33:54.938961,-5.5609197224,2.7469603447999997,-6.7776700145,-0.20097466336714706,-0.07086036763096977,-0.10399980680321212
12/07/2024 19:33:54.991733,-5.5680981902,2.9347969189,-6.8769721524,-0.12278391287780109,0.10934487763744474,-0.03237585762449481
12/07/2024 19:33:55.044506,-6.0203416616,3.2949167202,-6.932007072199999,0.00717766654882668,0.08582656596682116,0.06765332513043021
12/07/2024 19:33:55.097360,-6.4426748505,3.9098721283999995,-6.880561386299999,0.1385136927614,-0.012980886311707827,0.1516472953826573
12/07/2024 19:33:55.150217,-6.5706908596,4.5487557626,-7.4524459877,0.24877486825614176,-0.02199114857512855,0.18173240836390955
12/07/2024 19:33:55.203089,-6.6676001749,4.9244289108,-7.4392854634,0.3187189380298145,-0.4712825312697689,0.22815816646695872
12/07/2024 19:33:55.255985,-6.9702922337999995,4.6683968926,-6.437889205299999,0.3575088806553885,-0.756251164889143,0.24388794635055763
12/07/2024 19:33:55.308771,-6.8769721524,4.4015971727,-5.7882378694,0.40943242590221973,-0.43127085816779887,0.3229949946972006
